ax,ay,az,gx,gy,gz,mx,my,mz
0.97,-0.09,-0.05,6.10,2.99,6.04,35.25,-10.06,-14.55
0.97,-0.09,-0.05,6.10,2.99,6.04,35.25,-10.06,-14.55
0.96,-0.07,-0.05,6.47,2.69,6.16,35.25,-10.06,-14.55
0.96,-0.07,-0.05,5.80,1.83,5.13,35.25,-10.06,-14.55
0.96,-0.07,-0.04,5.80,1.83,5.13,35.25,-10.06,-14.55
0.95,-0.06,-0.04,5.07,1.77,3.85,35.25,-10.06,-14.55
0.95,-0.06,-0.04,5.07,1.77,3.85,35.51,-10.55,-14.59
0.95,-0.07,-0.03,3.85,2.08,2.26,35.51,-10.55,-14.59
0.96,-0.07,-0.03,2.93,2.56,0.55,35.51,-10.55,-14.59
0.96,-0.07,-0.03,2.93,2.56,0.55,35.51,-10.55,-14.59
0.97,-0.07,-0.04,2.93,2.56,0.00,35.51,-10.55,-14.59
0.97,-0.07,-0.04,2.26,2.75,-0.61,35.51,-10.55,-14.59
0.97,-0.08,-0.05,2.26,2.75,-0.61,35.51,-10.55,-14.59
0.98,-0.09,-0.05,1.71,2.69,-0.73,35.51,-10.55,-14.59
0.98,-0.09,-0.05,1.71,2.69,-0.73,35.51,-10.55,-14.59
0.98,-0.10,-0.04,2.26,1.95,-0.31,35.51,-10.55,-14.59
0.98,-0.10,-0.04,2.14,2.01,0.31,35.38,-10.17,-14.27
0.97,-0.10,-0.04,2.14,2.01,0.31,35.38,-10.17,-14.27
0.98,-0.10,-0.04,2.32,2.01,0.79,35.38,-10.17,-14.27
0.98,-0.10,-0.04,2.32,2.01,0.79,35.38,-10.17,-14.27
0.97,-0.10,-0.04,2.75,1.40,1.40,35.38,-10.17,-14.27
0.97,-0.11,-0.05,3.17,1.22,2.50,35.38,-10.17,-14.27
0.97,-0.11,-0.05,3.17,1.22,2.50,35.38,-10.17,-14.27
0.97,-0.10,-0.04,3.78,0.98,3.30,35.38,-10.17,-14.27
0.97,-0.10,-0.04,3.78,0.98,3.30,35.38,-10.17,-14.27
0.96,-0.09,-0.03,4.27,0.43,4.09,35.38,-10.17,-14.27
0.96,-0.09,-0.03,4.52,0.37,4.52,35.03,-10.46,-14.22
0.96,-0.09,-0.03,4.52,0.37,4.52,35.03,-10.46,-14.22
0.96,-0.08,-0.04,5.25,0.98,5.31,35.03,-10.46,-14.22
0.97,-0.08,-0.04,5.98,0.92,5.80,35.03,-10.46,-14.22
0.97,-0.08,-0.04,5.98,0.92,5.80,35.03,-10.46,-14.22
0.97,-0.08,-0.03,5.43,0.79,5.62,35.03,-10.46,-14.22
0.97,-0.08,-0.03,5.43,0.79,5.62,35.03,-10.46,-14.22
0.97,-0.07,-0.03,5.62,0.92,5.55,35.03,-10.46,-14.22
0.97,-0.06,-0.03,5.49,1.46,4.94,35.03,-10.46,-14.22
0.97,-0.06,-0.03,5.49,1.46,4.94,35.03,-10.46,-14.22
0.98,-0.07,-0.03,3.54,2.20,4.03,34.57,-10.21,-13.15
0.98,-0.07,-0.03,2.75,1.83,2.69,34.57,-10.21,-13.15
0.98,-0.07,-0.04,2.75,1.83,2.69,34.57,-10.21,-13.15
0.98,-0.07,-0.04,2.50,2.01,2.26,34.57,-10.21,-13.15
0.98,-0.07,-0.04,2.50,2.01,2.26,34.57,-10.21,-13.15
0.99,-0.08,-0.05,2.32,1.16,0.92,34.57,-10.21,-13.15
0.99,-0.08,-0.05,1.95,0.18,0.92,34.57,-10.21,-13.15
0.98,-0.08,-0.04,1.95,0.18,0.92,34.57,-10.21,-13.15
0.97,-0.09,-0.02,2.56,-0.43,1.65,34.57,-10.21,-13.15
0.97,-0.09,-0.02,2.56,-0.43,1.65,34.57,-10.21,-13.15
0.98,-0.10,-0.03,3.23,-0.06,2.69,35.05,-10.22,-14.36
0.97,-0.09,-0.03,3.48,0.06,3.54,35.05,-10.22,-14.36
0.97,-0.09,-0.03,3.48,0.06,3.54,35.05,-10.22,-14.36
0.97,-0.08,-0.02,4.03,0.24,4.94,35.05,-10.22,-14.36
0.97,-0.08,-0.02,4.82,0.98,5.80,35.05,-10.22,-14.36
0.97,-0.08,-0.02,4.82,0.98,5.80,35.05,-10.22,-14.36
0.96,-0.08,-0.02,4.76,2.20,6.04,35.05,-10.22,-14.36
0.96,-0.08,-0.02,4.76,2.20,6.04,35.05,-10.22,-14.36
0.97,-0.07,-0.03,6.04,2.50,6.23,35.05,-10.22,-14.36
0.97,-0.07,-0.03,5.25,3.36,6.04,35.07,-10.49,-14.27
0.97,-0.06,-0.03,5.25,3.36,6.04,35.07,-10.49,-14.27
0.97,-0.05,-0.03,6.53,1.95,4.82,35.07,-10.49,-14.27
0.97,-0.05,-0.03,6.53,1.95,4.82,35.07,-10.49,-14.27
0.97,-0.05,-0.04,5.13,3.23,3.72,35.07,-10.49,-14.27
0.98,-0.06,-0.04,4.33,3.85,2.20,35.07,-10.49,-14.27
0.98,-0.06,-0.04,4.33,3.85,2.20,35.07,-10.49,-14.27
0.98,-0.07,-0.04,5.86,2.38,1.53,35.07,-10.49,-14.27
0.98,-0.07,-0.04,5.86,2.38,1.53,35.07,-10.49,-14.27
0.97,-0.08,-0.04,3.85,3.05,1.53,35.07,-10.49,-14.27
0.98,-0.08,-0.04,4.39,2.20,1.53,34.67,-10.55,-13.13
0.98,-0.08,-0.04,4.39,2.20,1.53,34.67,-10.55,-13.13
0.97,-0.08,-0.04,3.54,2.38,2.56,34.67,-10.55,-13.13
0.96,-0.08,-0.03,3.78,1.65,3.30,34.67,-10.55,-13.13
0.96,-0.08,-0.03,3.78,1.65,3.30,34.67,-10.55,-13.13
0.97,-0.09,-0.03,3.97,2.14,4.76,34.67,-10.55,-13.13
0.97,-0.09,-0.03,3.97,2.14,4.76,34.67,-10.55,-13.13
0.97,-0.09,-0.03,5.74,2.01,6.47,34.67,-10.55,-13.13
0.97,-0.09,-0.03,5.49,3.78,8.48,34.67,-10.55,-13.13
0.97,-0.09,-0.03,5.49,3.78,8.48,34.67,-10.55,-13.13
0.97,-0.08,-0.04,6.65,3.42,9.03,34.40,-10.74,-14.90
0.97,-0.08,-0.04,5.92,4.09,9.64,34.40,-10.74,-14.90
0.97,-0.07,-0.05,5.92,4.09,9.64,34.40,-10.74,-14.90
0.97,-0.06,-0.04,7.02,2.93,9.09,34.40,-10.74,-14.90
0.97,-0.06,-0.04,7.02,2.93,9.09,34.40,-10.74,-14.90
0.97,-0.05,-0.05,6.10,3.66,9.22,34.40,-10.74,-14.90
0.97,-0.05,-0.05,5.98,2.81,8.12,34.40,-10.74,-14.90
0.96,-0.03,-0.05,5.98,2.81,8.12,34.40,-10.74,-14.90
0.97,-0.03,-0.05,5.37,2.56,6.71,34.40,-10.74,-14.90
0.97,-0.03,-0.05,5.37,2.56,6.71,34.40,-10.74,-14.90
0.97,-0.04,-0.05,4.39,1.77,4.76,34.36,-10.33,-13.23
0.97,-0.05,-0.04,3.42,1.22,3.48,34.36,-10.33,-13.23
0.97,-0.05,-0.04,3.42,1.22,3.48,34.36,-10.33,-13.23
0.97,-0.05,-0.03,1.22,1.65,2.14,34.36,-10.33,-13.23
0.97,-0.05,-0.03,1.10,1.53,1.89,34.36,-10.33,-13.23
0.96,-0.06,-0.03,1.10,1.53,1.89,34.36,-10.33,-13.23
0.97,-0.07,-0.04,1.89,2.38,2.20,34.36,-10.33,-13.23
0.97,-0.07,-0.04,1.89,2.38,2.20,34.36,-10.33,-13.23
0.98,-0.07,-0.04,1.10,4.15,2.93,34.36,-10.33,-13.23
0.98,-0.07,-0.04,2.32,3.17,3.36,34.36,-10.33,-13.23
0.97,-0.07,-0.04,2.32,3.17,3.36,34.81,-10.52,-13.82
0.97,-0.07,-0.04,3.78,3.42,4.52,34.81,-10.52,-13.82
0.97,-0.07,-0.04,3.78,3.42,4.52,34.81,-10.52,-13.82
0.98,-0.08,-0.04,5.55,3.11,5.55,34.81,-10.52,-13.82
0.97,-0.08,-0.04,5.19,4.03,7.08,34.81,-10.52,-13.82
0.97,-0.08,-0.04,5.19,4.03,7.08,34.81,-10.52,-13.82
0.97,-0.06,-0.04,7.02,2.99,7.87,34.81,-10.52,-13.82
0.97,-0.06,-0.04,7.02,2.99,7.87,34.81,-10.52,-13.82
0.97,-0.05,-0.04,5.98,3.66,8.48,34.81,-10.52,-13.82
0.97,-0.04,-0.04,6.29,2.26,7.39,34.81,-10.52,-13.82
0.97,-0.04,-0.04,6.29,2.26,7.39,34.70,-10.49,-14.34
0.97,-0.04,-0.04,4.64,2.56,6.84,34.70,-10.49,-14.34
0.97,-0.03,-0.04,3.48,2.69,5.68,34.70,-10.49,-14.34
0.97,-0.03,-0.04,3.48,2.69,5.68,34.70,-10.49,-14.34
0.97,-0.04,-0.05,4.88,1.40,4.64,34.70,-10.49,-14.34
0.97,-0.04,-0.05,4.88,1.40,4.64,34.70,-10.49,-14.34
0.97,-0.04,-0.04,2.20,2.69,4.39,34.70,-10.49,-14.34
0.97,-0.05,-0.04,3.17,2.01,3.72,34.70,-10.49,-14.34
0.97,-0.05,-0.04,3.17,2.01,3.72,34.70,-10.49,-14.34
0.98,-0.06,-0.04,3.78,2.62,4.52,34.70,-10.49,-14.34
0.98,-0.06,-0.04,3.78,2.62,4.52,34.22,-10.29,-14.25
0.97,-0.06,-0.04,3.23,2.75,5.13,34.22,-10.29,-14.25
0.97,-0.05,-0.04,4.76,1.95,5.37,34.22,-10.29,-14.25
0.97,-0.05,-0.04,4.76,1.95,5.37,34.22,-10.29,-14.25
0.97,-0.04,-0.04,3.48,3.05,5.74,34.22,-10.29,-14.25
0.96,-0.03,-0.04,4.82,2.20,5.07,34.22,-10.29,-14.25
0.96,-0.03,-0.04,4.82,2.20,5.07,34.22,-10.29,-14.25
0.97,-0.04,-0.04,4.27,3.54,5.00,34.22,-10.29,-14.25
0.97,-0.04,-0.04,4.27,3.54,5.00,34.22,-10.29,-14.25
0.97,-0.04,-0.04,5.49,3.17,4.82,34.22,-10.29,-14.25
0.97,-0.04,-0.04,4.94,3.72,4.82,34.68,-10.52,-14.70
0.97,-0.04,-0.04,4.94,3.72,4.82,34.68,-10.52,-14.70
0.97,-0.04,-0.05,4.21,3.97,4.21,34.68,-10.52,-14.70
0.97,-0.02,-0.04,4.03,3.72,3.36,34.68,-10.52,-14.70
0.97,-0.02,-0.04,4.03,3.72,3.36,34.68,-10.52,-14.70
0.97,-0.00,-0.05,3.54,3.66,1.95,34.68,-10.52,-14.70
0.97,-0.00,-0.05,3.54,3.66,1.95,34.68,-10.52,-14.70
0.97,0.00,-0.05,0.92,4.27,-0.92,34.68,-10.52,-14.70
0.97,-0.00,-0.05,-0.55,3.72,-3.97,34.68,-10.52,-14.70
0.97,-0.00,-0.05,-0.55,3.72,-3.97,34.68,-10.52,-14.70
0.97,-0.01,-0.04,-2.14,3.91,-6.29,34.85,-10.60,-12.90
0.97,-0.01,-0.04,-2.62,4.03,-8.18,34.85,-10.60,-12.90
0.97,-0.01,-0.04,-2.62,4.03,-8.18,34.85,-10.60,-12.90
0.97,-0.06,-0.04,-2.26,3.97,-9.52,34.85,-10.60,-12.90
0.97,-0.06,-0.04,-2.26,3.97,-9.52,34.85,-10.60,-12.90
0.97,-0.09,-0.04,-0.37,4.39,-8.91,34.85,-10.60,-12.90
0.97,-0.09,-0.04,0.18,5.49,-6.96,34.85,-10.60,-12.90
0.98,-0.11,-0.05,0.18,5.49,-6.96,34.85,-10.60,-12.90
0.98,-0.13,-0.04,1.71,4.70,-4.15,34.85,-10.60,-12.90
0.98,-0.13,-0.04,1.71,4.70,-4.15,34.85,-10.60,-12.90
0.98,-0.12,-0.05,3.78,4.88,0.73,34.96,-11.06,-13.21
0.97,-0.10,-0.05,6.71,4.15,5.13,34.96,-11.06,-13.21
0.97,-0.10,-0.05,6.71,4.15,5.13,34.96,-11.06,-13.21
0.97,-0.06,-0.05,8.00,3.91,8.48,34.96,-11.06,-13.21
0.97,-0.06,-0.05,8.42,3.66,10.01,34.96,-11.06,-13.21
0.97,-0.03,-0.06,8.42,3.66,10.01,34.96,-11.06,-13.21
0.97,-0.01,-0.06,7.69,3.11,9.34,34.96,-11.06,-13.21
0.97,-0.01,-0.06,7.69,3.11,9.34,34.96,-11.06,-13.21
0.96,0.01,-0.05,6.16,2.50,7.14,34.96,-11.06,-13.21
0.96,0.01,-0.05,6.16,2.50,7.14,34.96,-11.06,-13.21
0.96,0.01,-0.06,4.39,2.44,4.52,34.99,-10.83,-13.71
0.97,-0.01,-0.06,2.69,2.26,1.04,34.99,-10.83,-13.71
0.97,-0.01,-0.06,2.69,2.26,1.04,34.99,-10.83,-13.71
0.96,-0.03,-0.05,1.40,1.46,-1.46,34.99,-10.83,-13.71
0.98,-0.05,-0.05,1.59,1.59,-2.32,34.99,-10.83,-13.71
0.98,-0.05,-0.05,1.59,1.59,-2.32,34.99,-10.83,-13.71
0.98,-0.07,-0.05,1.71,1.28,-2.26,34.99,-10.83,-13.71
0.98,-0.07,-0.05,1.71,1.28,-2.26,34.99,-10.83,-13.71
0.98,-0.07,-0.05,1.83,1.28,-0.73,34.99,-10.83,-13.71
0.98,-0.08,-0.05,2.44,1.89,1.28,34.91,-10.71,-13.79
0.98,-0.08,-0.05,2.44,1.89,1.28,34.91,-10.71,-13.79
0.98,-0.08,-0.05,3.72,1.71,3.23,34.91,-10.71,-13.79
0.98,-0.08,-0.06,4.70,0.73,5.49,34.91,-10.71,-13.79
0.98,-0.08,-0.06,4.70,0.73,5.49,34.91,-10.71,-13.79
0.96,-0.05,-0.03,4.52,-0.61,7.39,34.91,-10.71,-13.79
0.96,-0.05,-0.03,4.52,-0.61,7.39,34.91,-10.71,-13.79
0.97,-0.03,-0.03,6.90,1.59,9.22,34.91,-10.71,-13.79
0.98,-0.03,-0.05,7.45,3.42,9.77,34.91,-10.71,-13.79
0.98,-0.03,-0.05,7.45,3.42,9.77,34.91,-10.71,-13.79
0.97,-0.01,-0.05,6.96,3.42,8.73,33.92,-10.91,-12.37
0.97,-0.01,-0.05,6.23,3.42,6.71,33.92,-10.91,-12.37
0.97,-0.00,-0.06,6.23,3.42,6.71,33.92,-10.91,-12.37
0.98,-0.00,-0.07,3.97,3.48,4.33,33.92,-10.91,-12.37
0.98,-0.00,-0.07,3.97,3.48,4.33,33.92,-10.91,-12.37
0.97,-0.01,-0.06,2.81,2.38,1.95,33.92,-10.91,-12.37
0.97,-0.01,-0.06,2.44,1.28,0.06,33.92,-10.91,-12.37
0.97,-0.02,-0.06,2.44,1.28,0.06,33.92,-10.91,-12.37
0.97,-0.03,-0.05,0.73,1.28,-0.92,33.92,-10.91,-12.37
0.97,-0.03,-0.05,0.73,1.28,-0.92,33.92,-10.91,-12.37
0.97,-0.04,-0.05,0.00,0.85,-1.40,34.33,-10.56,-13.49
0.97,-0.04,-0.05,-0.79,0.55,-1.59,34.33,-10.56,-13.49
0.97,-0.04,-0.05,-0.79,0.55,-1.59,34.33,-10.56,-13.49
0.97,-0.04,-0.05,-0.61,0.67,-0.73,34.33,-10.56,-13.49
0.97,-0.04,-0.05,-1.04,1.22,-0.06,34.33,-10.56,-13.49
0.96,-0.03,-0.04,-1.04,1.22,-0.06,34.33,-10.56,-13.49
0.96,-0.02,-0.03,-0.43,1.59,-0.06,34.33,-10.56,-13.49
0.96,-0.02,-0.03,-0.43,1.59,-0.06,34.33,-10.56,-13.49
0.97,-0.03,-0.03,0.49,2.75,-0.18,34.33,-10.56,-13.49
0.97,-0.03,-0.03,0.49,2.75,-0.18,34.33,-10.56,-13.49
0.97,-0.04,-0.04,2.20,3.91,0.18,34.59,-10.75,-13.76
0.97,-0.04,-0.05,3.30,4.46,0.06,34.59,-10.75,-13.76
0.97,-0.04,-0.05,3.30,4.46,0.06,34.59,-10.75,-13.76
0.98,-0.04,-0.06,3.91,4.94,0.43,34.59,-10.75,-13.76
0.98,-0.06,-0.07,4.88,3.97,0.31,34.59,-10.75,-13.76
0.98,-0.06,-0.07,4.88,3.97,0.31,34.59,-10.75,-13.76
0.98,-0.08,-0.06,4.15,3.60,1.22,34.59,-10.75,-13.76
0.98,-0.08,-0.06,4.15,3.60,1.22,34.59,-10.75,-13.76
0.96,-0.08,-0.05,6.59,1.71,3.17,34.59,-10.75,-13.76
0.97,-0.07,-0.05,7.02,2.62,6.23,34.59,-10.75,-13.76
0.97,-0.07,-0.05,7.02,2.62,6.23,34.29,-10.64,-12.65
0.97,-0.05,-0.05,9.03,1.40,7.93,34.29,-10.64,-12.65
0.96,-0.02,-0.04,7.69,1.83,9.52,34.29,-10.64,-12.65
0.96,-0.02,-0.04,7.69,1.83,9.52,34.29,-10.64,-12.65
0.96,0.00,-0.05,6.35,2.62,8.48,34.29,-10.64,-12.65
0.96,0.00,-0.05,6.35,2.62,8.48,34.29,-10.64,-12.65
0.97,0.01,-0.06,5.19,2.44,6.10,34.29,-10.64,-12.65
0.97,0.02,-0.05,2.75,2.81,3.72,34.29,-10.64,-12.65
0.97,0.02,-0.05,2.75,2.81,3.72,34.29,-10.64,-12.65
0.97,-0.00,-0.06,3.23,2.26,1.16,34.29,-10.64,-12.65
0.97,-0.00,-0.06,3.23,2.26,1.16,34.35,-10.88,-14.67
0.98,-0.02,-0.06,1.65,3.05,0.06,34.35,-10.88,-14.67
0.97,-0.04,-0.05,1.34,1.95,-0.73,34.35,-10.88,-14.67
0.97,-0.04,-0.05,1.34,1.95,-0.73,34.35,-10.88,-14.67
0.98,-0.04,-0.06,1.77,1.83,-0.24,34.35,-10.88,-14.67
0.98,-0.04,-0.06,1.77,1.77,0.73,34.35,-10.88,-14.67
0.98,-0.05,-0.06,1.77,1.77,0.73,34.35,-10.88,-14.67
0.97,-0.05,-0.05,1.77,1.22,1.53,34.35,-10.88,-14.67
0.97,-0.05,-0.05,1.77,1.22,1.53,34.35,-10.88,-14.67
0.97,-0.05,-0.05,2.44,1.10,3.05,34.35,-10.88,-14.67
0.97,-0.05,-0.05,2.99,1.28,4.76,34.58,-10.56,-14.26
0.97,-0.04,-0.05,2.99,1.28,4.76,34.58,-10.56,-14.26
0.97,-0.03,-0.05,2.75,1.89,5.80,34.58,-10.56,-14.26
0.97,-0.03,-0.05,2.99,1.89,5.80,34.58,-10.56,-14.26
0.97,-0.02,-0.05,2.99,1.89,5.80,34.58,-10.56,-14.26
0.97,-0.01,-0.05,3.36,2.20,5.55,34.58,-10.56,-14.26
0.97,-0.01,-0.05,3.36,2.20,5.55,34.58,-10.56,-14.26
0.97,-0.01,-0.05,3.78,1.89,4.39,34.58,-10.56,-14.26
0.97,-0.01,-0.05,4.03,1.89,3.36,34.58,-10.56,-14.26
0.97,-0.01,-0.05,4.03,1.89,3.36,34.58,-10.56,-14.26
0.98,-0.01,-0.06,4.33,2.14,2.56,34.20,-10.82,-12.10
0.98,-0.01,-0.06,4.33,2.14,2.56,34.20,-10.82,-12.10
0.97,-0.01,-0.05,4.21,1.65,1.34,34.20,-10.82,-12.10
0.97,-0.02,-0.05,2.93,2.32,0.85,34.20,-10.82,-12.10
0.97,-0.02,-0.05,2.93,2.32,0.85,34.20,-10.82,-12.10
0.97,-0.04,-0.05,4.82,1.40,0.85,34.20,-10.82,-12.10
0.97,-0.04,-0.05,4.82,1.40,0.85,34.20,-10.82,-12.10
0.97,-0.04,-0.06,4.70,2.26,1.65,34.20,-10.82,-12.10
0.97,-0.04,-0.05,5.13,1.95,2.44,34.20,-10.82,-12.10
0.97,-0.04,-0.05,5.13,1.95,2.44,34.20,-10.82,-12.10
0.98,-0.03,-0.06,5.00,1.71,3.30,34.56,-10.56,-12.82
0.97,-0.03,-0.06,4.39,1.34,3.78,34.56,-10.56,-12.82
0.97,-0.03,-0.06,4.39,1.34,3.78,34.56,-10.56,-12.82
0.97,-0.02,-0.06,4.82,0.79,4.33,34.56,-10.56,-12.82
0.97,-0.02,-0.06,4.82,0.79,4.33,34.56,-10.56,-12.82
0.97,-0.01,-0.05,4.58,0.61,4.33,34.56,-10.56,-12.82
0.97,-0.01,-0.06,3.23,0.61,3.42,34.56,-10.56,-12.82
0.97,-0.01,-0.06,3.23,0.61,3.42,34.56,-10.56,-12.82
0.97,-0.00,-0.06,1.83,0.49,2.26,34.56,-10.56,-12.82
0.97,-0.00,-0.06,1.83,0.49,2.26,34.56,-10.56,-12.82
0.97,-0.00,-0.06,0.24,0.37,0.92,34.58,-10.93,-12.63
0.97,-0.02,-0.05,-0.31,-0.24,-0.49,34.58,-10.93,-12.63
0.97,-0.02,-0.05,-0.31,-0.24,-0.49,34.58,-10.93,-12.63
0.95,-0.03,-0.01,-0.43,-0.61,-0.79,34.58,-10.93,-12.63
0.95,-0.03,-0.01,-2.08,2.14,-0.18,34.58,-10.93,-12.63
0.99,-0.01,-0.07,-2.08,2.14,-0.18,34.58,-10.93,-12.63
0.98,-0.02,-0.08,-2.87,1.89,0.12,34.58,-10.93,-12.63
0.98,-0.02,-0.08,-2.87,1.89,0.12,34.58,-10.93,-12.63
0.97,-0.03,-0.06,-3.60,0.24,0.61,34.58,-10.93,-12.63
0.97,-0.03,-0.06,-4.46,0.06,1.16,34.58,-10.93,-12.63
0.97,-0.02,-0.04,-4.46,0.06,1.16,34.24,-10.90,-13.54
0.96,-0.02,-0.04,-4.94,0.12,1.10,34.24,-10.90,-13.54
0.96,-0.02,-0.04,-6.35,1.10,1.40,34.24,-10.90,-13.54
0.97,-0.02,-0.06,-6.35,1.10,1.40,34.24,-10.90,-13.54
0.97,-0.02,-0.06,-6.84,0.61,1.65,34.24,-10.90,-13.54
0.97,-0.02,-0.06,-6.84,0.61,1.65,34.24,-10.90,-13.54
0.96,-0.03,-0.04,-10.19,0.73,1.22,34.24,-10.90,-13.54
0.96,-0.03,-0.04,-10.25,-0.24,0.61,34.24,-10.90,-13.54
0.96,-0.02,-0.03,-10.25,-0.24,0.61,34.24,-10.90,-13.54
0.98,-0.02,-0.06,-10.56,0.55,0.73,34.22,-12.05,-13.43
0.98,-0.02,-0.06,-11.90,0.85,0.79,34.22,-12.05,-13.43
0.98,-0.01,-0.06,-11.90,0.85,0.79,34.22,-12.05,-13.43
0.98,-0.02,-0.05,-12.39,0.98,1.59,34.22,-12.05,-13.43
0.98,-0.02,-0.05,-12.39,0.98,1.59,34.22,-12.05,-13.43
0.98,-0.04,-0.05,-11.72,1.40,2.93,34.22,-12.05,-13.43
0.98,-0.04,-0.05,-10.86,0.43,4.03,34.22,-12.05,-13.43
0.99,-0.04,-0.05,-10.86,0.43,4.03,34.22,-12.05,-13.43
0.98,-0.04,-0.05,-12.39,-0.37,5.43,34.22,-12.05,-13.43
0.98,-0.04,-0.05,-12.39,-0.37,5.43,34.22,-12.05,-13.43
0.98,-0.04,-0.05,-16.24,-0.31,6.90,34.27,-11.55,-12.34
0.98,-0.02,-0.06,-20.20,-0.12,8.48,34.27,-11.55,-12.34
0.98,-0.02,-0.06,-20.20,-0.12,8.48,34.27,-11.55,-12.34
0.98,-0.02,-0.06,-26.98,0.73,9.46,34.27,-11.55,-12.34
0.98,-0.02,-0.06,-26.98,0.73,9.46,34.27,-11.55,-12.34
0.98,-0.03,-0.06,-33.20,1.04,10.19,34.27,-11.55,-12.34
0.97,0.00,-0.07,-37.60,-0.67,10.38,34.27,-11.55,-12.34
0.97,0.00,-0.07,-37.60,-0.67,10.38,34.27,-11.55,-12.34
0.97,0.02,-0.07,-45.47,-1.04,10.38,34.27,-11.55,-12.34
0.97,0.02,-0.07,-55.18,-2.50,8.67,34.27,-11.55,-12.34
0.97,0.00,-0.07,-55.18,-2.50,8.67,33.11,-12.83,-11.58
0.95,-0.00,-0.06,-66.65,-3.66,6.65,33.11,-12.83,-11.58
0.95,-0.00,-0.06,-66.65,-3.66,6.65,33.11,-12.83,-11.58
0.97,0.01,-0.05,-74.58,-4.27,5.74,33.11,-12.83,-11.58
0.96,0.03,-0.03,-75.81,-5.49,5.74,33.11,-12.83,-11.58
0.96,0.03,-0.03,-75.81,-5.49,5.74,33.11,-12.83,-11.58
0.96,0.07,-0.01,-75.74,-6.47,5.07,33.11,-12.83,-11.58
0.96,0.07,-0.01,-75.74,-6.47,5.07,33.11,-12.83,-11.58
0.96,0.11,-0.04,-80.81,-6.29,0.98,33.11,-12.83,-11.58
0.89,0.13,-0.02,-92.59,-5.74,-7.63,33.11,-12.83,-11.58
0.89,0.13,-0.02,-92.59,-5.74,-7.63,33.48,-14.33,-10.62
1.00,0.11,-0.13,-102.78,-1.71,-17.40,33.48,-14.33,-10.62
1.00,0.12,-0.15,-112.67,-5.49,-27.04,33.48,-14.33,-10.62
1.00,0.12,-0.15,-112.67,-5.49,-27.04,33.48,-14.33,-10.62
0.94,0.10,-0.09,-121.03,-13.73,-34.67,33.48,-14.33,-10.62
0.94,0.10,-0.09,-121.03,-13.73,-34.67,33.48,-14.33,-10.62
1.04,0.01,-0.12,-123.90,-14.89,-39.73,33.48,-14.33,-10.62
0.99,-0.05,-0.06,-129.33,-18.07,-42.48,33.48,-14.33,-10.62
0.99,-0.05,-0.06,-129.33,-18.07,-42.48,33.48,-14.33,-10.62
1.01,-0.10,-0.05,-132.57,-23.74,-40.47,33.48,-14.33,-10.62
1.01,-0.10,-0.05,-131.23,-25.63,-35.89,33.65,-17.04,-7.18
1.00,-0.10,-0.01,-131.23,-25.63,-35.89,33.65,-17.04,-7.18
0.96,-0.11,0.06,-125.06,-25.63,-29.30,33.65,-17.04,-7.18
0.96,-0.11,0.06,-116.94,-21.18,-21.91,33.65,-17.04,-7.18
0.93,-0.13,0.08,-116.94,-21.18,-21.91,33.65,-17.04,-7.18
0.98,-0.15,0.06,-110.90,-12.70,-15.38,33.65,-17.04,-7.18
0.98,-0.15,0.06,-110.90,-12.70,-15.38,33.65,-17.04,-7.18
0.97,-0.14,0.06,-103.82,-7.32,-8.73,33.65,-17.04,-7.18
0.97,-0.14,0.06,-96.13,-3.91,-2.87,33.65,-17.04,-7.18
0.97,-0.11,0.02,-96.13,-3.91,-2.87,33.65,-17.04,-7.18
1.01,-0.09,-0.03,-92.77,-1.71,0.98,35.10,-19.75,-6.05
1.01,-0.09,-0.03,-93.20,-4.33,3.54,35.10,-19.75,-6.05
1.00,-0.01,-0.08,-93.20,-4.33,3.54,35.10,-19.75,-6.05
0.96,-0.01,-0.05,-100.83,-10.19,2.56,35.10,-19.75,-6.05
0.96,-0.01,-0.05,-100.83,-10.19,2.56,35.10,-19.75,-6.05
0.97,-0.02,-0.01,-109.74,-16.11,-1.53,35.10,-19.75,-6.05
0.97,-0.02,-0.01,-115.66,-18.92,-3.66,35.10,-19.75,-6.05
0.94,-0.02,-0.02,-115.66,-18.92,-3.66,35.10,-19.75,-6.05
0.95,-0.04,0.02,-108.89,-16.85,-3.72,35.10,-19.75,-6.05
0.95,-0.04,0.02,-108.89,-16.85,-3.72,35.10,-19.75,-6.05
0.94,-0.10,0.09,-97.35,-14.47,-2.50,35.05,-22.33,-2.54
0.92,-0.11,0.09,-90.27,-10.74,0.73,35.05,-22.33,-2.54
0.92,-0.11,0.09,-90.27,-10.74,0.73,35.05,-22.33,-2.54
0.95,-0.10,0.08,-81.91,-5.00,4.94,35.05,-22.33,-2.54
0.95,-0.10,0.08,-81.91,-5.00,4.94,35.05,-22.33,-2.54
0.95,-0.08,0.08,-72.88,-1.04,9.34,35.05,-22.33,-2.54
0.96,-0.09,0.04,-65.67,2.08,12.15,35.05,-22.33,-2.54
0.96,-0.09,0.04,-65.67,2.08,12.15,35.05,-22.33,-2.54
0.97,-0.07,0.02,-52.55,5.55,14.28,35.05,-22.33,-2.54
0.97,-0.07,0.02,-46.57,5.49,15.81,35.13,-23.52,-0.82
0.97,-0.02,0.03,-46.57,5.49,15.81,35.13,-23.52,-0.82
0.97,-0.01,0.04,-42.97,6.41,15.38,35.13,-23.52,-0.82
0.97,-0.01,0.04,-42.97,6.41,15.38,35.13,-23.52,-0.82
0.97,-0.00,-0.01,-36.93,7.63,14.59,35.13,-23.52,-0.82
0.98,-0.01,-0.03,-34.36,6.65,13.43,35.13,-23.52,-0.82
0.98,-0.01,-0.03,-34.36,6.65,13.43,35.13,-23.52,-0.82
0.97,-0.03,-0.00,-38.02,4.03,12.08,35.13,-23.52,-0.82
0.97,-0.03,-0.00,-38.02,4.03,12.08,35.13,-23.52,-0.82
1.02,-0.05,-0.03,-40.41,2.20,11.84,35.13,-23.52,-0.82
0.98,-0.05,0.01,-42.91,-2.44,10.86,34.62,-24.11,1.07
0.98,-0.05,0.01,-42.91,-2.44,10.86,34.62,-24.11,1.07
0.96,-0.04,0.04,-46.88,-6.65,11.60,34.62,-24.11,1.07
0.99,-0.03,0.01,-50.60,-7.20,11.90,34.62,-24.11,1.07
0.99,-0.03,0.01,-50.60,-7.20,11.90,34.62,-24.11,1.07
0.97,-0.04,0.06,-55.60,-9.22,11.84,34.62,-24.11,1.07
0.97,-0.04,0.06,-55.60,-9.22,11.84,34.62,-24.11,1.07
0.95,-0.04,0.10,-58.17,-9.03,12.33,34.62,-24.11,1.07
0.96,-0.03,0.09,-57.07,-5.13,13.55,34.62,-24.11,1.07
0.96,-0.03,0.09,-57.07,-5.13,13.55,34.62,-24.11,1.07
0.95,-0.04,0.10,-53.41,-0.73,15.26,34.50,-25.06,2.77
0.96,-0.03,0.07,-49.56,4.21,17.46,34.50,-25.06,2.77
0.96,-0.03,0.07,-49.56,4.21,17.46,34.50,-25.06,2.77
0.98,-0.02,0.06,-49.74,8.18,20.08,34.50,-25.06,2.77
0.98,-0.02,0.06,-49.74,8.18,20.08,34.50,-25.06,2.77
0.98,-0.02,0.08,-51.15,9.34,21.67,34.50,-25.06,2.77
0.97,0.02,0.05,-51.15,9.89,21.67,34.50,-25.06,2.77
0.97,0.02,0.05,-51.15,9.89,21.67,34.50,-25.06,2.77
0.96,0.04,0.03,-53.59,8.79,19.04,34.50,-25.06,2.77
0.96,0.04,0.03,-53.59,8.79,19.04,34.50,-25.06,2.77
0.97,0.01,0.04,-57.74,7.51,15.75,34.22,-26.37,4.98
0.97,-0.02,0.03,-61.65,8.00,13.85,34.22,-26.37,4.98
0.97,-0.02,0.03,-61.65,8.00,13.85,34.22,-26.37,4.98
0.99,-0.04,0.04,-66.10,7.20,13.92,34.22,-26.37,4.98
1.00,-0.04,0.02,-66.89,6.29,15.62,34.22,-26.37,4.98
1.00,-0.04,0.02,-66.89,6.29,15.62,34.22,-26.37,4.98
0.98,-0.03,0.01,-66.41,6.23,19.47,34.22,-26.37,4.98
0.98,-0.03,0.01,-66.41,6.23,19.47,34.22,-26.37,4.98
0.99,-0.02,0.04,-66.22,8.12,23.25,34.22,-26.37,4.98
0.97,0.00,0.06,-65.12,7.69,24.72,34.22,-26.37,4.98
0.97,0.00,0.06,-65.12,7.69,24.72,33.46,-26.06,6.35
0.98,0.02,0.02,-65.49,5.00,24.84,33.46,-26.06,6.35
0.98,0.02,0.02,-72.88,0.79,22.89,33.46,-26.06,6.35
0.98,0.02,0.03,-72.88,0.79,22.89,33.46,-26.06,6.35
0.97,-0.01,0.02,-81.05,-4.82,19.29,33.46,-26.06,6.35
0.97,-0.01,0.02,-81.05,-4.82,19.29,33.46,-26.06,6.35
1.00,0.02,-0.03,-84.90,-9.89,17.52,33.46,-26.06,6.35
0.99,0.08,-0.06,-88.01,-15.62,15.81,33.46,-26.06,6.35
0.99,0.08,-0.06,-88.01,-15.62,15.81,33.46,-26.06,6.35
0.97,0.15,-0.07,-91.19,-21.36,13.31,33.46,-26.06,6.35
0.97,0.15,-0.07,-91.19,-21.36,13.31,31.91,-26.38,11.06
0.93,0.20,-0.07,-92.83,-28.14,6.77,31.91,-26.38,11.06
0.92,0.18,-0.07,-92.29,-34.97,-2.56,31.91,-26.38,11.06
0.92,0.18,-0.07,-92.29,-34.97,-2.56,31.91,-26.38,11.06
0.94,0.15,-0.06,-93.02,-42.42,-10.38,31.91,-26.38,11.06
0.94,0.14,-0.02,-97.05,-48.22,-16.48,31.91,-26.38,11.06
0.94,0.14,-0.02,-97.05,-48.22,-16.48,31.91,-26.38,11.06
0.92,0.08,-0.02,-97.23,-53.22,-19.96,31.91,-26.38,11.06
0.92,0.08,-0.02,-97.23,-53.22,-19.96,31.91,-26.38,11.06
0.95,0.05,0.01,-98.14,-55.24,-18.86,33.31,-26.33,13.71
0.94,0.04,0.07,-97.90,-53.28,-15.20,33.31,-26.33,13.71
0.94,0.04,0.07,-97.90,-53.28,-15.20,33.31,-26.33,13.71
0.94,0.09,-0.01,-90.39,-46.39,-11.72,33.31,-26.33,13.71
0.98,0.08,-0.02,-83.44,-41.38,-9.34,33.31,-26.33,13.71
0.98,0.08,-0.02,-83.44,-41.38,-9.34,33.31,-26.33,13.71
1.03,0.07,-0.08,-76.48,-39.25,-8.48,33.31,-26.33,13.71
1.03,0.07,-0.08,-76.48,-39.25,-8.48,33.31,-26.33,13.71
1.04,0.11,-0.12,-72.94,-41.20,-6.71,33.31,-26.33,13.71
1.02,0.11,-0.07,-73.12,-48.52,-5.98,33.31,-26.33,13.71
1.02,0.11,-0.07,-73.12,-48.52,-5.98,33.98,-26.29,15.06
1.00,0.10,-0.04,-74.65,-56.09,-8.97,33.98,-26.29,15.06
0.98,0.06,0.03,-79.35,-61.89,-13.79,33.98,-26.29,15.06
0.98,0.06,0.03,-79.35,-61.89,-13.79,33.98,-26.29,15.06
0.94,0.02,0.13,-84.35,-64.94,-16.11,33.98,-26.29,15.06
0.94,0.02,0.13,-84.35,-64.94,-16.11,33.98,-26.29,15.06
0.93,0.01,0.17,-86.30,-61.89,-14.89,33.98,-26.29,15.06
0.91,0.05,0.18,-86.49,-55.42,-11.29,33.98,-26.29,15.06
0.91,0.05,0.18,-86.49,-55.42,-11.29,33.98,-26.29,15.06
0.90,0.07,0.18,-86.73,-48.03,-10.13,33.98,-26.29,15.06
0.90,0.07,0.18,-86.73,-48.03,-10.13,34.28,-25.96,18.31
0.91,0.04,0.22,-85.39,-39.55,-11.05,34.28,-25.96,18.31
0.93,0.08,0.14,-79.90,-27.40,-8.48,34.28,-25.96,18.31
0.93,0.08,0.14,-79.90,-27.40,-8.48,34.28,-25.96,18.31
0.96,0.09,0.11,-72.88,-19.04,-3.85,34.28,-25.96,18.31
1.00,0.09,0.07,-66.71,-16.36,-0.55,34.28,-25.96,18.31
1.00,0.09,0.07,-66.71,-16.36,-0.55,34.28,-25.96,18.31
1.02,0.11,0.04,-65.19,-19.17,0.31,34.28,-25.96,18.31
1.02,0.11,0.04,-65.19,-19.17,0.31,34.28,-25.96,18.31
1.00,0.11,0.00,-67.38,-28.08,-2.38,34.28,-25.96,18.31
1.02,0.08,0.03,-74.46,-43.52,-7.63,33.72,-24.52,17.68
1.02,0.08,0.03,-74.46,-43.52,-7.63,33.72,-24.52,17.68
1.01,0.04,0.08,-85.94,-59.45,-13.73,33.72,-24.52,17.68
1.00,0.06,0.10,-96.98,-70.80,-18.68,33.72,-24.52,17.68
1.00,0.06,0.10,-96.98,-70.80,-18.68,33.72,-24.52,17.68
0.94,0.09,0.13,-107.97,-77.76,-24.23,33.72,-24.52,17.68
0.94,0.09,0.13,-107.97,-77.76,-24.23,33.72,-24.52,17.68
0.87,0.10,0.23,-116.21,-78.43,-30.03,33.72,-24.52,17.68
0.81,0.11,0.33,-117.49,-69.95,-34.18,33.72,-24.52,17.68
0.81,0.11,0.33,-117.49,-69.95,-34.18,33.72,-24.52,17.68
0.81,0.10,0.41,-112.43,-53.77,-34.61,35.18,-23.18,19.82
0.81,0.12,0.41,-97.60,-36.80,-30.09,35.18,-23.18,19.82
0.81,0.12,0.41,-97.60,-36.80,-30.09,35.18,-23.18,19.82
0.84,0.08,0.40,-86.06,-24.54,-23.93,35.18,-23.18,19.82
0.84,0.08,0.40,-86.06,-24.54,-23.93,35.18,-23.18,19.82
0.91,0.07,0.31,-81.24,-17.46,-21.30,35.18,-23.18,19.82
0.95,0.09,0.21,-81.12,-19.41,-23.19,35.18,-23.18,19.82
0.95,0.09,0.21,-81.12,-19.41,-23.19,35.18,-23.18,19.82
0.95,0.08,0.22,-87.28,-30.09,-27.16,35.18,-23.18,19.82
0.95,0.08,0.22,-87.28,-30.09,-27.16,35.18,-23.18,19.82
0.96,0.05,0.23,-91.13,-40.34,-31.07,35.97,-21.70,22.77
0.96,0.07,0.19,-94.73,-46.51,-33.39,35.97,-21.70,22.77
0.96,0.07,0.19,-94.73,-46.51,-33.39,35.97,-21.70,22.77
0.94,0.09,0.18,-100.22,-53.10,-35.77,35.97,-21.70,22.77
0.93,0.05,0.24,-102.42,-59.02,-38.02,35.97,-21.70,22.77
0.93,0.05,0.24,-102.42,-59.02,-38.02,35.97,-21.70,22.77
0.93,0.06,0.24,-100.83,-57.56,-38.33,35.97,-21.70,22.77
0.93,0.06,0.24,-100.83,-57.56,-38.33,35.97,-21.70,22.77
0.93,0.07,0.20,-99.30,-52.73,-39.43,35.97,-21.70,22.77
0.93,0.05,0.25,-100.46,-50.42,-40.59,36.91,-19.65,24.37
0.93,0.05,0.25,-100.46,-50.42,-40.59,36.91,-19.65,24.37
0.98,0.03,0.25,-103.15,-43.70,-41.44,36.91,-19.65,24.37
0.92,0.04,0.25,-103.94,-46.57,-37.96,36.91,-19.65,24.37
0.92,0.04,0.25,-103.94,-46.57,-37.96,36.91,-19.65,24.37
0.82,0.07,0.26,-107.18,-41.93,-35.10,36.91,-19.65,24.37
0.82,0.07,0.26,-113.77,-22.03,-34.12,36.91,-19.65,24.37
1.00,0.04,0.29,-113.77,-22.03,-34.12,36.91,-19.65,24.37
0.89,0.11,0.33,-121.03,-28.32,-35.64,36.91,-19.65,24.37
0.89,0.11,0.33,-121.03,-28.32,-35.64,36.91,-19.65,24.37
0.82,0.15,0.42,-122.68,-28.63,-38.02,38.06,-17.69,27.19
0.84,0.16,0.39,-106.57,-12.76,-36.74,38.06,-17.69,27.19
0.84,0.16,0.39,-106.57,-12.76,-36.74,38.06,-17.69,27.19
0.85,0.14,0.42,-80.63,-2.69,-28.02,38.06,-17.69,27.19
0.85,0.14,0.42,-53.59,4.03,-20.26,38.06,-17.69,27.19
0.85,0.13,0.43,-53.59,4.03,-20.26,38.06,-17.69,27.19
0.88,0.11,0.31,-30.15,11.41,-16.24,38.06,-17.69,27.19
0.88,0.11,0.31,-30.15,11.41,-16.24,38.06,-17.69,27.19
0.93,0.09,0.25,-21.61,11.17,-14.28,38.06,-17.69,27.19
0.93,0.09,0.25,-23.86,4.15,-15.14,38.06,-17.69,27.19
0.95,0.06,0.23,-23.86,4.15,-15.14,38.94,-16.04,27.93
0.97,0.04,0.20,-29.66,-2.81,-15.14,38.94,-16.04,27.93
0.97,0.04,0.20,-40.59,-11.35,-15.38,38.94,-16.04,27.93
0.93,0.03,0.26,-40.59,-11.35,-15.38,38.94,-16.04,27.93
0.90,0.04,0.31,-51.39,-16.54,-19.53,38.94,-16.04,27.93
0.90,0.04,0.31,-51.39,-16.54,-19.53,38.94,-16.04,27.93
0.89,0.08,0.33,-58.78,-15.01,-24.35,38.94,-16.04,27.93
0.89,0.08,0.33,-61.40,-9.09,-26.12,38.94,-16.04,27.93
0.87,0.12,0.32,-61.40,-9.09,-26.12,38.94,-16.04,27.93
0.86,0.13,0.33,-60.36,-3.54,-26.49,38.94,-16.04,27.93
0.86,0.13,0.33,-60.36,-3.54,-26.49,38.67,-14.58,29.25
0.88,0.08,0.34,-58.35,1.71,-30.21,38.67,-14.58,29.25
0.91,0.05,0.33,-56.34,8.54,-33.51,38.67,-14.58,29.25
0.91,0.05,0.33,-56.34,8.54,-33.51,38.67,-14.58,29.25
0.94,0.04,0.30,-57.31,13.73,-36.44,38.67,-14.58,29.25
0.94,0.04,0.30,-60.73,17.58,-40.28,38.67,-14.58,29.25
0.93,0.04,0.26,-60.73,17.58,-40.28,38.67,-14.58,29.25
0.93,0.02,0.25,-65.31,19.71,-41.99,38.67,-14.58,29.25
0.93,0.02,0.25,-65.31,19.71,-41.99,38.67,-14.58,29.25
0.94,0.00,0.29,-70.25,18.43,-41.08,38.67,-14.58,29.25
0.92,0.01,0.23,-76.35,16.11,-39.86,39.49,-12.49,29.91
0.92,0.01,0.23,-76.35,16.11,-39.86,39.49,-12.49,29.91
0.89,0.05,0.27,-87.46,12.15,-38.33,39.49,-12.49,29.91
0.89,0.05,0.27,-93.26,11.11,-36.19,39.49,-12.49,29.91
0.89,0.06,0.28,-93.26,11.11,-36.19,39.49,-12.49,29.91
0.89,0.08,0.24,-92.59,13.12,-36.32,39.49,-12.49,29.91
0.89,0.08,0.24,-92.59,13.12,-36.32,39.49,-12.49,29.91
0.88,0.10,0.27,-91.43,14.89,-35.03,39.49,-12.49,29.91
0.89,0.11,0.25,-90.45,22.16,-38.21,39.49,-12.49,29.91
0.89,0.11,0.25,-90.45,22.16,-38.21,39.15,-9.33,32.14
0.94,0.12,0.23,-87.83,24.11,-39.37,39.15,-9.33,32.14
0.94,0.12,0.23,-79.35,16.24,-38.70,39.15,-9.33,32.14
0.93,0.10,0.22,-79.35,16.24,-38.70,39.15,-9.33,32.14
0.92,0.06,0.27,-70.25,5.37,-37.23,39.15,-9.33,32.14
0.92,0.06,0.27,-70.25,5.37,-37.23,39.15,-9.33,32.14
0.94,0.04,0.27,-65.12,0.92,-33.39,39.15,-9.33,32.14
0.94,0.04,0.27,-61.52,-2.69,-29.30,39.15,-9.33,32.14
0.93,0.04,0.26,-61.52,-2.69,-29.30,39.15,-9.33,32.14
0.92,0.04,0.23,-60.18,-5.00,-27.77,39.15,-9.33,32.14
0.92,0.04,0.23,-60.18,-5.00,-27.77,38.95,-5.63,33.50
0.94,0.04,0.23,-61.46,-5.98,-28.93,38.95,-5.63,33.50
0.94,0.04,0.24,-59.63,-6.77,-29.66,38.95,-5.63,33.50
0.94,0.04,0.24,-59.63,-6.77,-29.66,38.95,-5.63,33.50
0.94,0.05,0.21,-55.97,-5.43,-28.44,38.95,-5.63,33.50
0.94,0.05,0.21,-54.08,-4.33,-27.10,38.95,-5.63,33.50
0.94,0.05,0.22,-54.08,-4.33,-27.10,38.95,-5.63,33.50
0.92,0.04,0.26,-50.48,-6.90,-26.86,38.95,-5.63,33.50
0.92,0.04,0.26,-50.48,-6.90,-26.86,38.95,-5.63,33.50
0.93,0.02,0.28,-47.55,-7.02,-25.15,38.95,-5.63,33.50
0.94,0.03,0.26,-48.16,-5.31,-23.13,39.12,-3.80,34.03
0.94,0.03,0.26,-48.16,-5.31,-23.13,39.12,-3.80,34.03
0.93,0.03,0.24,-51.21,-5.80,-21.85,39.12,-3.80,34.03
0.93,0.03,0.24,-55.30,-6.53,-22.03,39.12,-3.80,34.03
0.93,0.02,0.25,-55.30,-6.53,-22.03,39.12,-3.80,34.03
0.94,0.00,0.24,-57.92,-5.19,-22.40,39.12,-3.80,34.03
0.94,0.00,0.24,-57.92,-5.19,-22.40,39.12,-3.80,34.03
0.95,-0.00,0.25,-60.06,-3.91,-21.36,39.12,-3.80,34.03
0.95,-0.00,0.25,-63.11,-2.99,-20.39,39.12,-3.80,34.03
0.93,-0.00,0.28,-63.11,-2.99,-20.39,39.12,-3.80,34.03
0.92,0.01,0.28,-65.25,-0.73,-20.51,38.84,-1.39,34.84
0.92,0.01,0.28,-70.56,3.48,-21.36,38.84,-1.39,34.84
0.93,0.02,0.24,-70.56,3.48,-21.36,38.84,-1.39,34.84
0.92,0.03,0.24,-74.22,2.87,-23.44,38.84,-1.39,34.84
0.92,0.03,0.24,-74.22,2.87,-23.44,38.84,-1.39,34.84
0.93,0.01,0.27,-77.27,2.93,-24.48,38.84,-1.39,34.84
0.93,0.01,0.27,-78.31,4.82,-24.11,38.84,-1.39,34.84
0.94,0.01,0.25,-78.31,4.82,-24.11,38.84,-1.39,34.84
0.93,-0.01,0.28,-79.22,5.13,-23.19,38.84,-1.39,34.84
0.93,-0.01,0.28,-79.22,5.13,-23.19,38.84,-1.39,34.84
0.93,-0.01,0.29,-80.93,6.84,-21.97,37.94,1.77,35.90
0.92,0.00,0.27,-84.53,10.31,-22.22,37.94,1.77,35.90
0.92,0.00,0.27,-84.53,10.31,-22.22,37.94,1.77,35.90
0.90,0.02,0.26,-91.80,13.37,-24.78,37.94,1.77,35.90
0.90,0.02,0.26,-96.07,16.30,-29.48,37.94,1.77,35.90
0.92,0.03,0.25,-96.07,16.30,-29.48,37.94,1.77,35.90
0.93,0.04,0.25,-98.75,22.40,-31.31,37.94,1.77,35.90
0.93,0.04,0.25,-98.75,22.40,-31.31,37.94,1.77,35.90
0.93,0.03,0.26,-97.47,25.21,-31.74,37.94,1.77,35.90
0.93,0.03,0.26,-97.23,30.33,-30.21,37.94,1.77,35.90
0.96,0.02,0.25,-97.23,30.33,-30.21,38.06,4.61,36.29
0.97,-0.02,0.24,-96.44,32.47,-28.38,38.06,4.61,36.29
0.97,-0.02,0.24,-97.84,31.19,-26.73,38.06,4.61,36.29
0.96,0.00,0.23,-97.84,31.19,-26.73,38.06,4.61,36.29
0.93,0.01,0.24,-103.33,29.85,-26.00,38.06,4.61,36.29
0.93,0.01,0.24,-103.33,29.85,-26.00,38.06,4.61,36.29
0.93,0.03,0.24,-111.51,31.56,-26.92,38.06,4.61,36.29
0.93,0.03,0.24,-117.00,32.65,-29.42,38.06,4.61,36.29
0.97,0.09,0.24,-117.00,32.65,-29.42,38.06,4.61,36.29
1.00,0.09,0.17,-113.10,33.08,-30.46,37.26,8.67,37.82
1.00,0.09,0.17,-101.62,28.02,-27.40,37.26,8.67,37.82
0.99,0.09,0.16,-101.62,28.02,-27.40,37.26,8.67,37.82
0.96,0.08,0.16,-89.48,25.94,-22.95,37.26,8.67,37.82
0.96,0.08,0.16,-89.48,25.94,-22.95,37.26,8.67,37.82
0.97,0.07,0.16,-78.00,24.78,-21.30,37.26,8.67,37.82
0.97,0.07,0.16,-73.18,25.63,-20.02,37.26,8.67,37.82
0.97,0.06,0.15,-73.18,25.63,-20.02,37.26,8.67,37.82
0.97,0.07,0.13,-67.57,24.60,-18.49,37.26,8.67,37.82
0.97,0.07,0.13,-67.57,24.60,-18.49,37.26,8.67,37.82
0.95,0.04,0.13,-62.19,21.79,-16.97,36.72,10.99,38.04
0.92,0.04,0.20,-64.58,19.29,-16.85,36.72,10.99,38.04
0.92,0.04,0.20,-64.58,19.29,-16.85,36.72,10.99,38.04
0.91,0.06,0.23,-71.90,17.15,-20.45,36.72,10.99,38.04
0.91,0.06,0.23,-77.33,19.29,-24.66,36.72,10.99,38.04
0.94,0.06,0.19,-77.33,19.29,-24.66,36.72,10.99,38.04
0.97,0.04,0.15,-74.83,19.41,-25.02,36.72,10.99,38.04
0.97,0.04,0.15,-74.83,19.41,-25.02,36.72,10.99,38.04
0.99,-0.01,0.11,-66.35,19.65,-21.55,36.72,10.99,38.04
0.99,-0.01,0.11,-58.59,16.60,-16.42,36.72,10.99,38.04
0.98,-0.03,0.09,-58.59,16.60,-16.42,35.85,13.76,37.92
0.98,-0.02,0.12,-55.73,11.54,-12.08,35.85,13.76,37.92
0.98,-0.02,0.12,-53.53,10.93,-9.46,35.85,13.76,37.92
0.96,-0.00,0.11,-53.53,10.93,-9.46,35.85,13.76,37.92
0.96,0.01,0.10,-50.05,10.62,-7.39,35.85,13.76,37.92
0.96,0.01,0.10,-50.05,10.62,-7.39,35.85,13.76,37.92
0.95,0.04,0.11,-49.26,9.03,-5.31,35.85,13.76,37.92
0.95,0.04,0.11,-47.85,8.18,-4.46,35.85,13.76,37.92
0.94,0.04,0.13,-47.85,8.18,-4.46,35.85,13.76,37.92
0.94,0.03,0.13,-48.34,8.00,-4.27,35.85,13.76,37.92
0.94,0.03,0.13,-48.34,8.00,-4.27,35.90,15.69,37.73
0.94,0.03,0.15,-53.71,7.20,-5.25,35.90,15.69,37.73
0.95,0.05,0.10,-61.04,5.68,-7.32,35.90,15.69,37.73
0.95,0.05,0.10,-61.04,5.68,-7.32,35.90,15.69,37.73
0.96,0.04,0.12,-67.02,0.55,-9.16,35.90,15.69,37.73
0.96,0.04,0.12,-67.02,0.55,-9.16,35.90,15.69,37.73
0.96,0.04,0.16,-68.79,-4.58,-8.61,35.90,15.69,37.73
0.97,0.07,0.16,-64.51,-4.27,-6.90,35.90,15.69,37.73
0.97,0.07,0.16,-64.51,-4.27,-6.90,35.90,15.69,37.73
0.97,0.04,0.13,-55.91,-0.24,-7.14,35.90,15.69,37.73
0.97,0.04,0.13,-49.68,0.98,-6.47,35.52,17.83,37.10
0.96,0.02,0.15,-49.68,0.98,-6.47,35.52,17.83,37.10
0.96,0.01,0.17,-48.52,1.65,-5.62,35.52,17.83,37.10
0.96,0.01,0.17,-48.52,1.65,-5.62,35.52,17.83,37.10
0.95,0.01,0.17,-52.19,3.72,-4.88,35.52,17.83,37.10
0.95,0.02,0.16,-55.60,5.55,-4.70,35.52,17.83,37.10
0.95,0.02,0.16,-55.60,5.55,-4.70,35.52,17.83,37.10
0.93,0.02,0.15,-59.39,8.00,-5.37,35.52,17.83,37.10
0.93,0.02,0.15,-65.49,10.80,-7.08,35.52,17.83,37.10
0.97,0.04,0.16,-65.49,10.80,-7.08,35.52,17.83,37.10
0.97,0.04,0.08,-65.49,12.33,-10.31,34.52,19.63,36.62
0.97,0.04,0.08,-65.49,12.33,-10.31,34.52,19.63,36.62
0.98,0.02,0.05,-60.30,13.18,-11.60,34.52,19.63,36.62
0.98,0.03,0.06,-53.04,10.38,-10.19,34.52,19.63,36.62
0.98,0.03,0.06,-53.04,10.38,-10.19,34.52,19.63,36.62
0.97,0.02,0.11,-46.20,8.42,-8.42,34.52,19.63,36.62
0.97,0.02,0.11,-37.29,6.53,-8.73,34.52,19.63,36.62
0.95,0.02,0.13,-37.29,6.53,-8.73,34.52,19.63,36.62
0.97,0.00,0.10,-34.24,8.79,-9.64,34.52,19.63,36.62
0.97,0.00,0.10,-34.24,8.79,-9.64,34.52,19.63,36.62
0.96,-0.00,0.12,-33.87,8.24,-9.64,35.16,21.15,35.17
0.96,-0.01,0.13,-31.68,7.26,-10.68,35.16,21.15,35.17
0.96,-0.01,0.13,-31.68,7.26,-10.68,35.16,21.15,35.17
0.97,-0.03,0.10,-30.88,9.89,-11.11,35.16,21.15,35.17
0.97,-0.03,0.10,-30.88,9.89,-11.11,35.16,21.15,35.17
0.97,-0.04,0.07,-29.11,10.62,-11.41,35.16,21.15,35.17
0.97,-0.05,0.08,-28.69,8.67,-11.29,35.16,21.15,35.17
0.97,-0.05,0.08,-28.69,8.67,-11.29,35.16,21.15,35.17
0.96,-0.06,0.08,-30.52,7.93,-10.07,35.16,21.15,35.17
0.96,-0.06,0.08,-31.80,6.47,-7.87,34.01,22.19,34.09
0.99,-0.05,0.09,-31.80,6.47,-7.87,34.01,22.19,34.09
1.00,-0.04,0.06,-29.91,6.47,-5.00,34.01,22.19,34.09
1.00,-0.04,0.06,-29.91,6.47,-5.00,34.01,22.19,34.09
0.98,-0.05,0.13,-21.18,3.97,-1.89,34.01,22.19,34.09
0.96,-0.03,0.15,-18.13,6.35,1.04,34.01,22.19,34.09
0.96,-0.03,0.15,-18.13,6.35,1.04,34.01,22.19,34.09
0.94,-0.01,0.15,-17.94,7.57,0.92,34.01,22.19,34.09
0.94,-0.01,0.15,-17.94,7.57,0.92,34.01,22.19,34.09
0.95,0.01,0.13,-21.85,8.48,-1.10,34.01,22.19,34.09
0.95,0.03,0.08,-27.22,9.77,-3.36,34.14,23.50,34.89
0.95,0.03,0.08,-27.22,9.77,-3.36,34.14,23.50,34.89
0.94,0.04,0.07,-28.50,8.61,-5.13,34.14,23.50,34.89
0.94,0.02,0.09,-26.92,6.96,-6.65,34.14,23.50,34.89
0.94,0.02,0.09,-26.92,6.96,-6.65,34.14,23.50,34.89
0.94,0.03,0.06,-27.34,7.75,-8.61,34.14,23.50,34.89
0.94,0.03,0.06,-27.34,7.75,-8.61,34.14,23.50,34.89
0.96,0.03,0.03,-26.86,8.06,-11.05,34.14,23.50,34.89
0.97,0.03,-0.00,-22.40,6.77,-11.05,34.14,23.50,34.89
0.97,0.03,-0.00,-22.40,6.77,-11.05,34.14,23.50,34.89
0.98,0.01,0.02,-15.20,5.13,-9.09,34.05,23.77,34.01
0.99,0.00,0.07,-4.64,2.62,-5.92,34.05,23.77,34.01
0.99,0.00,0.07,-4.64,2.62,-5.92,34.05,23.77,34.01
0.98,-0.02,0.11,-0.73,3.97,-1.34,34.05,23.77,34.01
0.98,-0.02,0.11,-0.73,3.97,-1.34,34.05,23.77,34.01
0.97,0.00,0.15,-1.22,2.56,2.20,34.05,23.77,34.01
0.96,0.02,0.13,-3.72,2.44,4.70,34.05,23.77,34.01
0.96,0.02,0.13,-3.72,2.44,4.70,34.05,23.77,34.01
0.97,0.05,0.08,-8.24,4.64,6.16,34.05,23.77,34.01
0.97,0.05,0.08,-8.24,4.64,6.16,34.05,23.77,34.01
0.96,0.07,0.06,-7.81,4.27,6.35,34.18,23.78,35.12
0.96,0.08,0.05,-1.77,2.56,5.43,34.18,23.78,35.12
0.96,0.08,0.05,-1.77,2.56,5.43,34.18,23.78,35.12
0.95,0.08,0.06,3.66,1.95,3.48,34.18,23.78,35.12
0.95,0.08,0.06,7.02,2.01,1.22,34.18,23.78,35.12
0.96,0.06,0.07,7.02,2.01,1.22,34.18,23.78,35.12
0.99,0.02,0.06,10.31,3.23,-0.06,34.18,23.78,35.12
0.99,0.02,0.06,10.31,3.23,-0.06,34.18,23.78,35.12
1.01,-0.02,0.03,15.93,3.60,1.77,34.18,23.78,35.12
1.01,-0.02,0.03,25.57,2.62,6.41,34.18,23.78,35.12
1.01,-0.03,0.03,25.57,2.62,6.41,33.59,23.68,35.05
1.00,-0.02,0.07,31.56,2.62,12.21,33.59,23.68,35.05
1.00,-0.02,0.07,35.40,0.85,15.62,33.59,23.68,35.05
0.98,0.00,0.12,35.40,0.85,15.62,33.59,23.68,35.05
0.96,0.02,0.16,34.85,1.04,17.21,33.59,23.68,35.05
0.96,0.02,0.16,34.85,1.04,17.21,33.59,23.68,35.05
0.94,0.04,0.17,27.47,2.26,16.05,33.59,23.68,35.05
0.94,0.04,0.17,15.38,2.99,12.45,33.59,23.68,35.05
0.94,0.05,0.16,15.38,2.99,12.45,33.59,23.68,35.05
0.95,0.05,0.11,6.04,4.15,8.67,33.59,23.68,35.05
0.95,0.05,0.11,6.04,4.15,8.67,34.56,23.00,35.56
0.95,0.05,0.07,0.31,5.43,6.23,34.56,23.00,35.56
0.95,0.04,0.07,0.12,4.58,3.78,34.56,23.00,35.56
0.95,0.04,0.07,0.12,4.58,3.78,34.56,23.00,35.56
0.95,0.03,0.06,2.50,3.54,1.89,34.56,23.00,35.56
0.95,0.03,0.06,2.50,3.54,1.89,34.56,23.00,35.56
0.96,0.02,0.07,4.39,2.81,0.43,34.56,23.00,35.56
0.96,0.01,0.09,6.04,2.32,-0.43,34.56,23.00,35.56
0.96,0.01,0.09,6.04,2.32,-0.43,34.56,23.00,35.56
0.96,-0.01,0.08,7.14,2.20,-0.85,34.56,23.00,35.56
0.96,-0.01,0.08,7.14,2.20,-0.85,34.72,22.25,34.61
0.96,-0.01,0.08,7.26,1.65,-0.67,34.72,22.25,34.61
0.96,-0.01,0.10,6.53,1.16,-0.06,34.72,22.25,34.61
0.96,-0.01,0.10,6.53,1.16,-0.06,34.72,22.25,34.61
0.96,0.00,0.11,3.72,1.95,0.67,34.72,22.25,34.61
0.96,0.00,0.10,2.14,2.08,0.79,34.72,22.25,34.61
0.96,0.00,0.10,2.14,2.08,0.79,34.72,22.25,34.61
0.97,0.02,0.09,1.83,0.85,0.92,34.72,22.25,34.61
0.97,0.02,0.09,1.83,0.85,0.92,34.72,22.25,34.61
0.97,0.02,0.08,1.28,1.40,1.83,34.72,22.25,34.61
0.97,0.02,0.08,1.16,2.69,3.17,34.17,22.29,34.80
0.97,0.03,0.07,1.16,2.69,3.17,34.17,22.29,34.80
0.97,0.04,0.08,2.87,1.34,3.36,34.17,22.29,34.80
0.97,0.04,0.08,4.27,0.85,3.66,34.17,22.29,34.80
0.97,0.06,0.09,4.27,0.85,3.66,34.17,22.29,34.80
0.96,0.08,0.10,2.81,2.81,3.85,34.17,22.29,34.80
0.96,0.08,0.10,2.81,2.81,3.85,34.17,22.29,34.80
0.95,0.09,0.10,0.61,4.21,1.95,34.17,22.29,34.80
0.95,0.09,0.10,-0.55,4.33,-1.10,34.17,22.29,34.80
0.95,0.09,0.09,-0.55,4.33,-1.10,34.17,22.29,34.80
0.96,0.07,0.08,-2.20,4.15,-3.66,34.24,22.92,35.40
0.96,0.07,0.08,-2.20,4.15,-3.66,34.24,22.92,35.40
0.96,0.05,0.08,-2.50,4.46,-5.19,34.24,22.92,35.40
0.96,0.04,0.08,-2.14,3.97,-5.80,34.24,22.92,35.40
0.96,0.04,0.08,-2.14,3.97,-5.80,34.24,22.92,35.40
0.97,0.02,0.07,-2.38,4.21,-6.10,34.24,22.92,35.40
0.97,0.02,0.07,-2.38,4.21,-6.10,34.24,22.92,35.40
0.97,0.00,0.08,-1.77,3.48,-5.13,34.24,22.92,35.40
0.97,0.01,0.09,-0.67,1.89,-3.66,34.24,22.92,35.40
0.97,0.01,0.09,-0.67,1.89,-3.66,34.24,22.92,35.40
0.96,0.00,0.10,-3.30,2.44,-2.44,33.92,23.12,34.58
0.95,0.00,0.11,-3.85,1.46,-2.62,33.92,23.12,34.58
0.95,0.00,0.11,-3.85,1.46,-2.62,33.92,23.12,34.58
0.95,0.01,0.10,-9.09,2.87,-2.69,33.92,23.12,34.58
0.95,0.01,0.10,-9.09,2.87,-2.69,33.92,23.12,34.58
0.95,0.02,0.08,-12.33,2.99,-3.36,33.92,23.12,34.58
0.95,0.02,0.07,-14.10,2.50,-4.09,33.92,23.12,34.58
0.95,0.02,0.07,-14.10,2.50,-4.09,33.92,23.12,34.58
0.94,0.05,0.06,-14.16,1.59,-4.46,33.92,23.12,34.58
0.94,0.05,0.06,-14.16,1.59,-4.46,33.92,23.12,34.58
0.94,0.04,0.07,-13.73,1.46,-5.68,34.20,23.32,35.23
0.93,0.03,0.09,-13.67,0.12,-7.75,34.20,23.32,35.23
0.93,0.03,0.09,-13.67,0.12,-7.75,34.20,23.32,35.23
0.91,0.00,0.09,-17.76,-0.79,-9.83,34.20,23.32,35.23
0.91,0.00,0.09,-30.21,-1.16,-11.66,34.20,23.32,35.23
0.96,0.02,0.13,-30.21,-1.16,-11.66,34.20,23.32,35.23
0.97,0.01,0.10,-34.79,0.12,-14.71,34.20,23.32,35.23
0.97,0.01,0.10,-34.79,0.12,-14.71,34.20,23.32,35.23
0.97,0.01,0.08,-32.53,0.61,-14.16,34.20,23.32,35.23
0.97,0.01,0.08,-27.77,0.43,-13.55,34.20,23.32,35.23
0.98,-0.01,0.07,-27.77,0.43,-13.55,33.13,24.26,33.28
0.99,0.00,0.10,-26.86,0.79,-12.21,33.13,24.26,33.28
0.99,0.00,0.10,-22.95,2.32,-10.38,33.13,24.26,33.28
0.99,-0.02,0.09,-22.95,2.32,-10.38,33.13,24.26,33.28
1.00,-0.03,0.07,-18.19,2.69,-8.54,33.13,24.26,33.28
1.00,-0.03,0.07,-18.19,2.69,-8.54,33.13,24.26,33.28
0.98,-0.01,0.09,-19.29,2.75,-5.86,33.13,24.26,33.28
0.98,-0.01,0.09,-19.65,0.92,-4.82,33.13,24.26,33.28
0.96,-0.00,0.10,-19.65,0.92,-4.82,33.13,24.26,33.28
0.95,0.01,0.10,-23.86,2.32,-4.39,33.28,25.06,34.31
0.95,0.01,0.10,-28.81,1.53,-5.07,33.28,25.06,34.31
0.95,0.04,0.12,-28.81,1.53,-5.07,33.28,25.06,34.31
0.95,0.07,0.11,-33.94,2.01,-6.53,33.28,25.06,34.31
0.95,0.07,0.11,-33.94,2.01,-6.53,33.28,25.06,34.31
0.94,0.08,0.09,-37.54,3.36,-8.61,33.28,25.06,34.31
0.94,0.08,0.09,-38.51,1.34,-10.99,33.28,25.06,34.31
0.95,0.06,0.08,-38.51,1.34,-10.99,33.28,25.06,34.31
0.95,0.07,0.11,-42.24,0.79,-13.12,33.28,25.06,34.31
0.95,0.07,0.11,-42.24,0.79,-13.12,33.28,25.06,34.31
0.95,0.06,0.09,-45.59,1.53,-15.75,33.25,26.29,33.62
0.97,0.04,0.07,-45.53,1.95,-18.01,33.25,26.29,33.62
0.97,0.04,0.07,-45.53,1.95,-18.01,33.25,26.29,33.62
0.97,0.02,0.07,-45.23,1.46,-18.13,33.25,26.29,33.62
0.97,0.02,0.07,-44.80,0.61,-17.40,33.25,26.29,33.62
0.97,0.01,0.10,-44.80,0.61,-17.40,33.25,26.29,33.62
0.97,-0.00,0.11,-47.97,1.71,-17.03,33.25,26.29,33.62
0.97,-0.00,0.11,-47.97,1.71,-17.03,33.25,26.29,33.62
0.58,0.13,1.40,-52.37,5.00,-17.46,33.25,26.29,33.62
0.58,0.13,1.40,-88.26,69.52,-31.92,33.25,26.29,33.62
1.10,-0.03,-0.05,-88.26,69.52,-31.92,32.48,28.10,32.73
1.01,-0.32,0.12,-128.91,63.66,-40.47,32.48,28.10,32.73
1.01,-0.32,0.12,-87.59,77.82,-4.64,32.48,28.10,32.73
1.12,-0.09,-0.11,-87.59,77.82,-4.64,32.48,28.10,32.73
1.02,-0.02,-0.18,-70.50,84.29,2.93,32.48,28.10,32.73
1.02,-0.02,-0.18,-70.50,84.29,2.93,32.48,28.10,32.73
0.95,0.12,-0.21,-99.55,27.89,-19.71,32.48,28.10,32.73
0.95,0.12,-0.21,-101.01,2.14,-25.88,32.48,28.10,32.73
0.99,0.23,-0.17,-101.01,2.14,-25.88,32.48,28.10,32.73
1.00,0.19,-0.11,-69.46,0.85,-29.54,32.48,28.10,32.73
1.00,0.19,-0.11,-69.46,0.85,-29.54,30.92,30.00,32.04
1.00,0.11,-0.10,-47.49,3.54,-30.21,30.92,30.00,32.04
1.00,0.02,-0.02,-37.11,-0.92,-31.80,30.92,30.00,32.04
1.00,0.02,-0.02,-37.11,-0.92,-31.80,30.92,30.00,32.04
1.03,-0.05,-0.01,-35.34,-6.16,-30.70,30.92,30.00,32.04
1.03,-0.05,-0.01,-33.75,-6.29,-28.81,30.92,30.00,32.04
1.03,-0.09,-0.00,-33.75,-6.29,-28.81,30.92,30.00,32.04
1.05,-0.11,-0.01,-32.10,-1.95,-24.72,30.92,30.00,32.04
1.05,-0.11,-0.01,-32.10,-1.95,-24.72,30.92,30.00,32.04
1.01,-0.11,0.06,-32.29,0.55,-19.53,30.92,30.00,32.04
1.01,-0.11,0.06,-36.74,2.75,-18.07,30.90,31.56,31.52
1.01,-0.10,0.05,-36.74,2.75,-18.07,30.90,31.56,31.52
1.00,-0.12,-0.03,-42.11,3.97,-15.50,30.90,31.56,31.52
1.00,-0.12,-0.03,-39.43,3.42,-7.02,30.90,31.56,31.52
0.95,-0.27,0.11,-39.43,3.42,-7.02,30.90,31.56,31.52
0.94,-0.17,0.12,-35.83,16.60,5.98,30.90,31.56,31.52
0.94,-0.17,0.12,-35.83,16.60,5.98,30.90,31.56,31.52
0.98,-0.20,0.05,-38.88,29.91,6.90,30.90,31.56,31.52
0.98,-0.20,0.05,-41.44,29.11,2.81,30.90,31.56,31.52
0.96,-0.08,-0.01,-41.44,29.11,2.81,30.90,31.56,31.52
0.95,-0.06,-0.07,-37.60,23.19,-2.62,31.21,32.37,30.33
0.95,-0.06,-0.07,-37.60,23.19,-2.62,31.21,32.37,30.33
0.95,-0.06,-0.09,-25.27,18.07,-2.81,31.21,32.37,30.33
0.96,-0.11,-0.07,-12.57,12.70,0.18,31.21,32.37,30.33
0.96,-0.11,-0.07,-12.57,12.70,0.18,31.21,32.37,30.33
0.95,-0.14,-0.05,-9.09,6.23,3.66,31.21,32.37,30.33
0.95,-0.14,-0.05,-13.92,-0.06,7.14,31.21,32.37,30.33
0.96,-0.11,-0.01,-13.92,-0.06,7.14,31.21,32.37,30.33
0.96,-0.06,0.05,-18.55,-4.21,8.85,31.21,32.37,30.33
0.96,-0.06,0.05,-18.55,-4.21,8.85,31.21,32.37,30.33
0.96,0.00,0.05,-26.61,-2.38,6.65,30.96,32.29,29.94
0.98,-0.03,0.05,-38.94,-0.98,2.38,30.96,32.29,29.94
0.98,-0.03,0.05,-38.94,-0.98,2.38,30.96,32.29,29.94
1.01,-0.02,0.06,-57.43,-1.34,1.89,30.96,32.29,29.94
1.01,-0.02,0.06,-81.18,-0.49,5.74,30.96,32.29,29.94
1.05,-0.05,0.02,-81.18,-0.49,5.74,30.96,32.29,29.94
1.01,-0.15,-0.09,-94.42,-3.48,12.45,30.96,32.29,29.94
1.01,-0.15,-0.09,-94.42,-3.48,12.45,30.96,32.29,29.94
1.03,-0.11,-0.02,-88.99,-4.33,17.27,30.96,32.29,29.94
1.03,-0.11,-0.02,-84.29,-1.53,21.79,31.56,32.69,27.47
1.03,-0.09,0.03,-84.29,-1.53,21.79,31.56,32.69,27.47
0.97,-0.12,0.01,-79.41,3.17,19.04,31.56,32.69,27.47
0.97,-0.12,0.01,-79.47,6.59,13.12,31.56,32.69,27.47
1.00,-0.09,0.05,-79.47,6.59,13.12,31.56,32.69,27.47
1.00,-0.15,-0.00,-85.57,4.52,11.66,31.56,32.69,27.47
1.00,-0.15,-0.00,-85.57,4.52,11.66,31.56,32.69,27.47
0.96,-0.11,-0.05,-88.38,0.24,11.17,31.56,32.69,27.47
0.96,-0.11,-0.05,-94.12,-1.83,13.24,31.56,32.69,27.47
0.90,-0.07,-0.07,-94.12,-1.83,13.24,31.56,32.69,27.47
0.90,-0.04,-0.09,-92.53,1.40,11.17,32.07,33.67,25.73
0.90,-0.04,-0.09,-92.53,1.40,11.17,32.07,33.67,25.73
0.93,0.01,-0.01,-89.66,5.74,7.75,32.07,33.67,25.73
0.90,0.04,-0.05,-93.57,10.19,5.80,32.07,33.67,25.73
0.90,0.04,-0.05,-93.57,10.19,5.80,32.07,33.67,25.73
0.87,0.01,-0.10,-100.40,18.98,3.42,32.07,33.67,25.73
0.87,0.01,-0.10,-110.78,24.17,2.44,32.07,33.67,25.73
0.97,0.05,-0.06,-110.78,24.17,2.44,32.07,33.67,25.73
1.02,0.08,0.00,-118.35,27.10,3.17,32.07,33.67,25.73
1.02,0.08,0.00,-118.35,27.10,3.17,32.07,33.67,25.73
1.02,0.05,0.01,-117.98,22.22,2.44,32.01,35.29,23.99
0.99,0.04,-0.15,-117.07,13.67,6.47,32.01,35.29,23.99
0.99,0.04,-0.15,-117.07,13.67,6.47,32.01,35.29,23.99
0.98,-0.07,-0.22,-125.18,15.81,13.31,32.01,35.29,23.99
0.98,-0.07,-0.22,-125.18,15.81,13.31,32.01,35.29,23.99
0.98,-0.15,-0.19,-128.66,24.60,15.75,32.01,35.29,23.99
1.04,-0.31,0.10,-119.08,24.66,17.70,32.01,35.29,23.99
1.04,-0.31,0.10,-119.08,24.66,17.70,32.01,35.29,23.99
1.03,-0.14,0.02,-90.94,0.24,3.48,32.01,35.29,23.99
1.03,-0.14,0.02,-77.51,-26.18,-10.07,32.01,35.29,23.99
0.97,-0.03,-0.08,-77.51,-26.18,-10.07,32.26,37.19,20.36
0.93,-0.01,-0.03,-71.29,-28.38,-13.85,32.26,37.19,20.36
0.93,-0.01,-0.03,-71.29,-28.38,-13.85,32.26,37.19,20.36
0.95,0.05,-0.06,-65.67,-24.66,-18.31,32.26,37.19,20.36
0.95,0.04,0.01,-62.50,-28.32,-24.48,32.26,37.19,20.36
0.95,0.04,0.01,-62.50,-28.32,-24.48,32.26,37.19,20.36
0.93,0.07,0.02,-56.40,-33.45,-27.71,32.26,37.19,20.36
0.93,0.07,0.02,-53.04,-35.03,-27.40,32.26,37.19,20.36
0.95,0.07,0.03,-53.04,-35.03,-27.40,32.26,37.19,20.36
0.94,0.03,0.00,-52.49,-33.94,-26.12,31.48,38.10,17.35
0.94,0.03,0.00,-52.49,-33.94,-26.12,31.48,38.10,17.35
0.95,-0.01,-0.01,-56.95,-30.46,-23.80,31.48,38.10,17.35
0.97,-0.14,-0.18,-59.63,-25.15,-22.46,31.48,38.10,17.35
0.97,-0.14,-0.18,-59.63,-25.15,-22.46,31.48,38.10,17.35
1.05,-0.13,-0.03,-64.21,-11.96,-24.60,31.48,38.10,17.35
1.05,-0.13,-0.03,-53.28,-0.79,-32.41,31.48,38.10,17.35
1.11,0.02,0.07,-53.28,-0.79,-32.41,31.48,38.10,17.35
1.05,0.08,0.01,-44.13,3.54,-36.32,31.48,38.10,17.35
1.05,0.08,0.01,-44.13,3.54,-36.32,31.48,38.10,17.35
0.95,0.11,-0.00,-38.64,9.77,-35.95,30.43,39.42,16.08
0.89,0.00,0.07,-32.04,13.67,-33.14,30.43,39.42,16.08
0.89,0.00,0.07,-32.04,13.67,-33.14,30.43,39.42,16.08
0.81,-0.18,0.02,-22.52,11.66,-37.78,30.43,39.42,16.08
0.81,-0.18,0.02,-13.37,-0.67,-49.13,30.43,39.42,16.08
0.90,-0.02,0.08,-13.37,-0.67,-49.13,30.43,39.42,16.08
1.00,0.07,0.06,-12.33,-26.73,-40.10,30.43,39.42,16.08
1.00,0.07,0.06,-12.33,-26.73,-40.10,30.43,39.42,16.08
0.99,0.03,-0.02,-15.81,-39.12,-25.09,30.43,39.42,16.08
0.99,0.03,-0.02,-12.70,-27.28,-21.91,30.43,39.42,16.08
0.95,-0.07,-0.08,-12.70,-27.28,-21.91,28.70,40.09,15.59
0.82,-0.09,-0.11,-3.54,-6.29,-36.32,28.70,40.09,15.59
0.82,-0.09,-0.11,2.87,3.05,-45.59,28.70,40.09,15.59
1.07,-0.01,0.14,2.87,3.05,-45.59,28.70,40.09,15.59
1.03,-0.11,0.01,0.55,-9.52,-33.57,28.70,40.09,15.59
1.03,-0.11,0.01,0.55,-9.52,-33.57,28.70,40.09,15.59
1.03,-0.14,-0.01,-0.61,-2.93,-25.33,28.70,40.09,15.59
1.03,-0.14,-0.01,-4.88,5.98,-26.92,28.70,40.09,15.59
1.07,-0.18,0.02,-4.88,5.98,-26.92,28.70,40.09,15.59
1.05,-0.17,0.07,-8.67,8.42,-28.02,28.70,40.09,15.59
1.05,-0.17,0.07,-8.67,8.42,-28.02,28.25,40.76,14.82
1.06,-0.14,0.07,-6.77,2.69,-24.05,28.25,40.76,14.82
1.03,-0.17,0.04,-4.03,-5.25,-17.21,28.25,40.76,14.82
1.03,-0.17,0.04,-4.03,-5.25,-17.21,28.25,40.76,14.82
1.03,-0.15,0.04,-1.10,-9.64,-11.23,28.25,40.76,14.82
1.03,-0.15,0.04,-1.10,-9.64,-11.23,28.25,40.76,14.82
1.02,-0.09,0.07,0.67,-11.90,-8.00,28.25,40.76,14.82
0.99,-0.06,0.08,1.53,-12.39,-5.55,28.25,40.76,14.82
0.99,-0.06,0.08,1.53,-12.39,-5.55,28.25,40.76,14.82
0.96,-0.04,0.09,3.48,-10.74,-4.52,28.25,40.76,14.82
0.96,-0.04,0.09,7.20,-8.48,-4.88,27.83,41.36,13.00
0.94,-0.04,0.10,7.20,-8.48,-4.88,27.83,41.36,13.00
0.92,-0.05,0.11,8.85,-3.97,-5.92,27.83,41.36,13.00
0.92,-0.05,0.11,8.85,-3.97,-5.92,27.83,41.36,13.00
0.90,-0.07,0.10,9.89,-1.22,-6.35,27.83,41.36,13.00
0.88,-0.09,0.09,11.54,-1.34,-4.58,27.83,41.36,13.00
0.88,-0.09,0.09,11.54,-1.34,-4.58,27.83,41.36,13.00
0.88,-0.10,0.08,11.29,-2.81,-1.59,27.83,41.36,13.00
0.88,-0.10,0.08,11.29,-2.81,-1.59,27.83,41.36,13.00
0.89,-0.11,0.07,10.99,-4.33,1.22,27.83,41.36,13.00
0.94,-0.14,0.06,11.05,-3.42,3.66,27.62,41.22,13.35
0.94,-0.14,0.06,11.05,-3.42,3.66,27.62,41.22,13.35
0.96,-0.14,0.07,12.21,-0.79,4.15,27.62,41.22,13.35
0.97,-0.12,0.09,12.82,2.62,2.32,27.62,41.22,13.35
0.97,-0.12,0.09,12.82,2.62,2.32,27.62,41.22,13.35
1.00,-0.12,0.10,12.76,5.74,-0.18,27.62,41.22,13.35
1.00,-0.12,0.10,12.76,5.74,-0.18,27.62,41.22,13.35
1.00,-0.12,0.10,13.06,5.92,-1.71,27.62,41.22,13.35
1.00,-0.11,0.11,12.94,3.05,-1.28,27.62,41.22,13.35
1.00,-0.11,0.11,12.94,3.05,-1.28,27.62,41.22,13.35
0.98,-0.08,0.11,11.11,-0.55,-0.31,27.33,41.02,14.47
0.94,-0.07,0.12,8.36,-2.14,0.06,27.33,41.02,14.47
0.94,-0.07,0.12,8.36,-2.14,0.06,27.33,41.02,14.47
0.92,-0.08,0.09,8.61,-4.76,0.06,27.33,41.02,14.47
0.92,-0.08,0.09,8.61,-4.76,0.06,27.33,41.02,14.47
0.93,-0.10,0.08,11.23,-7.20,0.00,27.33,41.02,14.47
0.93,-0.10,0.05,11.90,-8.36,0.24,27.33,41.02,14.47
0.93,-0.10,0.05,11.90,-8.36,0.24,27.33,41.02,14.47
0.92,-0.11,0.04,12.21,-8.12,1.71,27.33,41.02,14.47
0.92,-0.11,0.04,12.21,-8.12,1.71,27.33,41.02,14.47
0.91,-0.11,0.03,12.27,-5.49,2.38,27.80,41.10,13.72
0.93,-0.12,0.03,9.89,-0.73,1.28,27.80,41.10,13.72
0.93,-0.12,0.03,9.89,-0.73,1.28,27.80,41.10,13.72
0.97,-0.14,0.03,5.62,4.27,1.22,27.80,41.10,13.72
0.97,-0.14,0.03,4.09,6.35,1.28,27.80,41.10,13.72
1.00,-0.14,0.04,4.09,6.35,1.28,27.80,41.10,13.72
1.01,-0.13,0.07,3.60,6.47,1.28,27.80,41.10,13.72
1.01,-0.13,0.07,3.60,6.47,1.28,27.80,41.10,13.72
1.01,-0.12,0.08,3.66,4.33,0.18,27.80,41.10,13.72
1.01,-0.12,0.08,2.62,1.89,-0.67,27.80,41.10,13.72
1.00,-0.10,0.08,2.62,1.89,-0.67,27.75,40.80,13.81
0.99,-0.09,0.06,0.92,0.00,-0.61,27.75,40.80,13.81
0.99,-0.09,0.06,0.92,0.00,-0.61,27.75,40.80,13.81
0.98,-0.11,0.03,-0.73,-1.40,0.61,27.75,40.80,13.81
0.96,-0.13,0.02,0.06,-2.75,2.14,27.75,40.80,13.81
0.96,-0.13,0.02,0.06,-2.75,2.14,27.75,40.80,13.81
0.95,-0.12,0.02,1.34,-3.60,2.75,27.75,40.80,13.81
0.95,-0.12,0.02,1.34,-3.60,2.75,27.75,40.80,13.81
0.95,-0.11,0.01,1.10,-2.75,2.93,27.75,40.80,13.81
0.96,-0.12,0.01,1.89,-1.28,2.62,27.84,41.26,14.22
0.96,-0.12,0.01,1.89,-1.28,2.62,27.84,41.26,14.22
0.96,-0.12,0.03,4.33,-0.18,1.34,27.84,41.26,14.22
0.96,-0.12,0.04,5.07,0.67,-0.85,27.84,41.26,14.22
0.96,-0.12,0.04,5.07,0.67,-0.85,27.84,41.26,14.22
0.96,-0.10,0.03,4.03,1.04,-1.77,27.84,41.26,14.22
0.96,-0.10,0.03,4.03,1.04,-1.77,27.84,41.26,14.22
0.97,-0.09,0.03,5.86,-0.18,-1.65,27.84,41.26,14.22
0.97,-0.10,0.03,7.14,-0.73,0.06,27.84,41.26,14.22
0.97,-0.10,0.03,7.14,-0.73,0.06,27.84,41.26,14.22
0.97,-0.12,0.04,6.59,-1.22,2.26,28.47,40.83,15.05
0.98,-0.13,0.03,4.94,-1.77,3.23,28.47,40.83,15.05
0.98,-0.13,0.03,4.94,-1.77,3.23,28.47,40.83,15.05
0.99,-0.14,0.02,1.83,-0.73,4.58,28.47,40.83,15.05
0.99,-0.14,0.02,1.83,-0.73,4.58,28.47,40.83,15.05
0.98,-0.15,0.03,2.44,-1.34,5.62,28.47,40.83,15.05
0.98,-0.15,0.03,3.54,-1.83,4.64,28.47,40.83,15.05
0.98,-0.15,0.04,3.54,-1.83,4.64,28.47,40.83,15.05
0.98,-0.14,0.04,2.01,-0.31,3.11,28.47,40.83,15.05
0.98,-0.14,0.04,2.01,-0.31,3.11,28.47,40.83,15.05
0.98,-0.16,0.04,-0.49,1.16,2.87,27.66,41.55,14.38
0.97,-0.15,0.05,-0.55,0.37,2.93,27.66,41.55,14.38
0.97,-0.15,0.05,-0.55,0.37,2.93,27.66,41.55,14.38
0.96,-0.15,0.05,0.00,-1.46,1.34,27.66,41.55,14.38
0.96,-0.15,0.05,-1.16,-1.40,0.43,27.66,41.55,14.38
0.96,-0.14,0.05,-1.16,-1.40,0.43,27.66,41.55,14.38
0.95,-0.12,0.05,-2.62,0.12,0.06,27.66,41.55,14.38
0.95,-0.12,0.05,-2.62,0.12,0.06,27.66,41.55,14.38
0.96,-0.08,0.08,0.06,0.24,-2.01,27.66,41.55,14.38
0.96,-0.08,0.08,0.92,2.38,-3.91,27.66,41.55,14.38
0.95,-0.04,0.11,0.92,2.38,-3.91,27.27,41.42,14.10
0.96,-0.03,0.12,2.87,2.62,-5.13,27.27,41.42,14.10
0.96,-0.03,0.12,2.87,2.62,-5.13,27.27,41.42,14.10
0.97,-0.04,0.11,3.54,2.87,-4.64,27.27,41.42,14.10
0.97,-0.07,0.10,5.25,0.12,-2.26,27.27,41.42,14.10
0.97,-0.07,0.10,5.25,0.12,-2.26,27.27,41.42,14.10
0.97,-0.09,0.09,4.09,-2.50,1.16,27.27,41.42,14.10
0.97,-0.09,0.09,4.09,-2.50,1.16,27.27,41.42,14.10
0.96,-0.10,0.08,1.16,-4.33,3.05,27.27,41.42,14.10
0.96,-0.11,0.07,-3.60,-3.66,3.72,27.27,41.42,14.10
0.96,-0.11,0.07,-3.60,-3.66,3.72,27.40,41.89,13.00
0.96,-0.13,0.06,-5.31,-3.66,3.66,27.40,41.89,13.00
0.95,-0.11,0.07,-4.52,-5.07,2.01,27.40,41.89,13.00
0.95,-0.11,0.07,-4.52,-5.07,2.01,27.40,41.89,13.00
0.95,-0.08,0.08,-5.62,-4.03,-0.18,27.40,41.89,13.00
0.95,-0.08,0.08,-5.62,-4.03,-0.18,27.40,41.89,13.00
0.95,-0.06,0.09,-5.55,-2.26,-2.69,27.40,41.89,13.00
0.94,-0.04,0.10,-2.44,-3.05,-3.91,27.40,41.89,13.00
0.94,-0.04,0.10,-2.44,-3.05,-3.91,27.40,41.89,13.00
0.94,-0.04,0.10,0.37,-3.60,-3.23,27.40,41.89,13.00
0.94,-0.04,0.10,0.37,-3.60,-3.23,27.88,41.66,12.88
0.94,-0.05,0.10,1.95,-3.17,-2.01,27.88,41.66,12.88
0.94,-0.08,0.09,3.36,-3.05,-0.31,27.88,41.66,12.88
0.94,-0.08,0.09,3.36,-3.05,-0.31,27.88,41.66,12.88
0.93,-0.13,0.07,5.92,-5.19,2.81,27.88,41.66,12.88
0.92,-0.15,0.07,6.10,-6.53,5.19,27.88,41.66,12.88
0.92,-0.15,0.07,6.10,-6.53,5.19,27.88,41.66,12.88
0.92,-0.17,0.07,4.70,-6.65,5.13,27.88,41.66,12.88
0.92,-0.17,0.07,4.70,-6.65,5.13,27.88,41.66,12.88
0.92,-0.18,0.07,3.23,-6.47,3.54,27.88,41.66,12.88
0.92,-0.18,0.07,1.16,-5.80,2.81,28.16,41.59,12.37
0.92,-0.18,0.07,1.16,-5.80,2.81,28.16,41.59,12.37
0.92,-0.19,0.07,-1.77,-4.46,2.62,28.16,41.59,12.37
0.92,-0.19,0.07,-4.27,-2.87,2.87,28.16,41.59,12.37
0.92,-0.17,0.08,-4.27,-2.87,2.87,28.16,41.59,12.37
0.92,-0.15,0.10,-7.14,0.61,2.99,28.16,41.59,12.37
0.92,-0.15,0.10,-7.14,0.61,2.99,28.16,41.59,12.37
0.92,-0.14,0.11,-8.24,3.30,2.62,28.16,41.59,12.37
0.92,-0.14,0.11,-6.29,1.77,2.20,28.16,41.59,12.37
0.91,-0.15,0.10,-6.29,1.77,2.20,28.16,41.59,12.37
0.91,-0.14,0.09,-8.06,2.38,3.54,28.02,40.89,12.18
0.91,-0.14,0.09,-10.07,3.72,5.80,28.02,40.89,12.18
0.92,-0.15,0.08,-10.07,3.72,5.80,28.02,40.89,12.18
0.93,-0.17,0.07,-11.78,4.39,8.06,28.02,40.89,12.18
0.93,-0.17,0.07,-11.78,4.39,8.06,28.02,40.89,12.18
0.95,-0.19,0.06,-18.01,6.96,10.50,28.02,40.89,12.18
0.95,-0.19,0.06,-22.34,7.39,12.15,28.02,40.89,12.18
0.95,-0.20,0.05,-22.34,7.39,12.15,28.02,40.89,12.18
0.96,-0.20,0.05,-29.11,10.25,13.12,28.02,40.89,12.18
0.96,-0.20,0.05,-29.11,10.25,13.12,28.02,40.89,12.18
1.00,-0.21,0.03,-36.38,15.08,12.88,28.42,41.69,11.38
0.97,-0.21,0.08,-40.28,18.01,11.47,28.42,41.69,11.38
0.97,-0.21,0.08,-40.28,18.01,11.47,28.42,41.69,11.38
0.98,-0.17,0.07,-45.53,18.68,11.66,28.42,41.69,11.38
0.98,-0.17,0.07,-49.87,16.30,13.31,28.42,41.69,11.38
0.98,-0.14,0.08,-49.87,16.30,13.31,28.42,41.69,11.38
1.00,-0.14,0.05,-55.18,12.76,15.93,28.42,41.69,11.38
1.00,-0.14,0.05,-55.18,12.76,15.93,28.42,41.69,11.38
1.01,-0.11,0.05,-63.11,11.54,16.97,28.42,41.69,11.38
1.00,-0.10,0.06,-68.85,13.37,19.96,28.31,41.32,9.35
1.00,-0.10,0.06,-68.85,13.37,19.96,28.31,41.32,9.35
0.98,-0.10,0.07,-72.14,14.47,19.90,28.31,41.32,9.35
0.98,-0.10,0.07,-71.53,14.89,15.01,28.31,41.32,9.35
0.98,-0.09,0.09,-71.53,14.89,15.01,28.31,41.32,9.35
0.97,-0.07,0.10,-70.19,14.53,8.18,28.31,41.32,9.35
0.97,-0.07,0.10,-70.19,14.53,8.18,28.31,41.32,9.35
0.96,-0.03,0.09,-69.03,11.47,2.01,28.31,41.32,9.35
0.96,-0.03,0.09,-70.56,8.24,-1.22,28.31,41.32,9.35
0.94,-0.02,0.08,-70.56,8.24,-1.22,28.31,41.32,9.35
0.92,-0.01,0.05,-74.46,6.29,-1.04,28.08,41.74,7.21
0.92,-0.01,0.05,-81.48,6.16,3.11,28.08,41.74,7.21
0.90,-0.03,0.04,-81.48,6.16,3.11,28.08,41.74,7.21
0.89,-0.03,0.03,-87.28,5.00,9.83,28.08,41.74,7.21
0.89,-0.03,0.03,-87.28,5.00,9.83,28.08,41.74,7.21
0.90,-0.02,0.03,-89.78,2.93,16.30,28.08,41.74,7.21
0.90,-0.02,0.03,-91.25,4.27,21.42,28.08,41.74,7.21
0.92,-0.01,0.05,-91.25,4.27,21.42,28.08,41.74,7.21
0.94,0.00,0.07,-92.83,6.04,24.60,28.08,41.74,7.21
0.94,0.00,0.07,-92.83,6.04,24.60,28.08,41.74,7.21
0.96,0.01,0.08,-95.03,7.32,27.16,28.58,41.20,5.90
0.96,0.00,0.09,-94.42,8.06,28.81,28.58,41.20,5.90
0.96,0.00,0.09,-94.42,8.06,28.81,28.58,41.20,5.90
0.94,-0.02,0.09,-87.83,7.14,26.06,28.58,41.20,5.90
0.94,-0.02,0.09,-87.83,7.14,26.06,28.58,41.20,5.90
0.91,-0.01,0.07,-79.90,4.88,19.04,28.58,41.20,5.90
0.90,0.01,0.06,-75.99,1.95,12.33,28.58,41.20,5.90
0.90,0.01,0.06,-75.99,1.95,12.33,28.58,41.20,5.90
0.90,0.00,0.02,-74.46,-0.55,10.01,28.58,41.20,5.90
0.90,0.00,0.02,-74.46,-0.55,10.01,28.58,41.20,5.90
0.93,-0.04,-0.03,-77.27,-3.42,12.94,28.27,40.01,3.55
0.98,-0.09,-0.07,-88.38,-5.80,20.26,28.27,40.01,3.55
0.98,-0.09,-0.07,-88.38,-5.80,20.26,28.27,40.01,3.55
1.05,-0.11,-0.07,-104.00,-3.48,27.40,28.27,40.01,3.55
1.14,0.04,-0.01,-113.10,-1.40,28.38,28.27,40.01,3.55
1.14,0.04,-0.01,-113.10,-1.40,28.38,28.27,40.01,3.55
1.19,0.18,0.06,-121.89,0.12,31.37,28.27,40.01,3.55
1.19,0.18,0.06,-121.89,0.12,31.37,28.27,40.01,3.55
1.14,0.16,0.11,-129.70,-3.42,33.75,28.27,40.01,3.55
1.07,0.20,0.07,-131.90,-8.97,28.56,28.27,40.01,3.55
1.07,0.20,0.07,-131.90,-8.97,28.56,28.56,38.89,-1.62
0.97,0.18,0.04,-126.89,-8.48,22.58,28.56,38.89,-1.62
0.96,0.16,0.08,-118.77,-5.31,17.09,28.56,38.89,-1.62
0.96,0.16,0.08,-118.77,-5.31,17.09,28.56,38.89,-1.62
0.94,0.15,0.08,-105.90,-4.09,12.33,28.56,38.89,-1.62
0.94,0.15,0.08,-105.90,-4.09,12.33,28.56,38.89,-1.62
0.94,0.10,0.06,-95.15,-4.64,8.42,28.56,38.89,-1.62
0.97,0.01,0.03,-89.48,-5.55,6.84,28.56,38.89,-1.62
0.97,0.01,0.03,-89.48,-5.55,6.84,28.56,38.89,-1.62
1.00,-0.08,-0.01,-88.68,-7.39,9.09,28.56,38.89,-1.62
1.00,-0.08,-0.01,-88.68,-7.39,9.09,28.93,37.27,-4.79
1.02,-0.08,-0.01,-93.20,-8.06,13.98,28.93,37.27,-4.79
1.10,0.03,0.03,-100.77,-8.54,17.94,28.93,37.27,-4.79
1.10,0.03,0.03,-100.77,-8.54,17.94,28.93,37.27,-4.79
1.06,0.13,0.07,-104.98,-9.16,19.78,28.93,37.27,-4.79
0.97,0.23,0.08,-108.89,-6.04,18.19,28.93,37.27,-4.79
0.97,0.23,0.08,-108.89,-6.04,18.19,28.93,37.27,-4.79
0.95,0.29,0.06,-112.30,-3.30,12.39,28.93,37.27,-4.79
0.95,0.29,0.06,-112.30,-3.30,12.39,28.93,37.27,-4.79
0.94,0.18,0.06,-113.04,-3.42,5.62,28.93,37.27,-4.79
0.91,0.06,0.04,-107.97,-4.94,1.53,29.69,34.79,-8.48
0.91,0.06,0.04,-107.97,-4.94,1.53,29.69,34.79,-8.48
0.90,0.03,0.02,-103.15,-3.48,2.44,29.69,34.79,-8.48
0.93,0.03,0.05,-101.75,-3.36,5.31,29.69,34.79,-8.48
0.93,0.03,0.05,-101.75,-3.36,5.31,29.69,34.79,-8.48
0.92,0.05,0.07,-97.96,-4.58,7.75,29.69,34.79,-8.48
0.92,0.05,0.07,-97.96,-4.58,7.75,29.69,34.79,-8.48
0.93,0.11,0.08,-92.77,-3.60,9.03,29.69,34.79,-8.48
0.93,0.15,0.09,-85.33,-2.32,7.63,29.69,34.79,-8.48
0.93,0.15,0.09,-85.33,-2.32,7.63,29.69,34.79,-8.48
0.95,0.18,0.11,-75.93,-1.71,4.94,29.38,32.45,-9.99
0.94,0.18,0.08,-67.63,-0.92,2.32,29.38,32.45,-9.99
0.94,0.18,0.08,-67.63,-0.92,2.32,29.38,32.45,-9.99
0.94,0.15,0.05,-63.48,-0.06,0.18,29.38,32.45,-9.99
0.94,0.15,0.05,-63.48,-0.06,0.18,29.38,32.45,-9.99
0.94,0.11,0.04,-63.66,0.49,-0.79,29.38,32.45,-9.99
0.94,0.08,0.03,-64.88,0.12,-0.37,29.38,32.45,-9.99
0.94,0.08,0.03,-64.88,0.12,-0.37,29.38,32.45,-9.99
0.94,0.07,0.03,-66.35,0.00,0.55,29.38,32.45,-9.99
0.94,0.07,0.03,-66.35,0.00,0.55,29.38,32.45,-9.99
0.97,0.09,0.04,-66.89,0.43,0.49,29.55,30.53,-10.52
1.01,0.13,0.06,-66.71,3.11,0.24,29.55,30.53,-10.52
1.01,0.13,0.06,-66.71,3.11,0.24,29.55,30.53,-10.52
0.99,0.13,0.04,-63.66,2.62,0.12,29.55,30.53,-10.52
0.99,0.13,0.04,-56.52,0.92,-0.98,29.55,30.53,-10.52
0.96,0.12,0.04,-56.52,0.92,-0.98,29.55,30.53,-10.52
0.96,0.13,0.05,-50.11,2.01,-2.01,29.55,30.53,-10.52
0.96,0.13,0.05,-50.11,2.01,-2.01,29.55,30.53,-10.52
0.96,0.15,0.06,-42.66,4.39,-2.26,29.55,30.53,-10.52
0.96,0.15,0.06,-30.52,4.82,-3.72,28.89,29.44,-12.62
0.96,0.17,0.05,-30.52,4.82,-3.72,28.89,29.44,-12.62
0.95,0.17,0.03,-23.07,5.37,-5.80,28.89,29.44,-12.62
0.95,0.17,0.03,-23.86,4.52,-7.26,28.89,29.44,-12.62
0.94,0.13,0.01,-23.86,4.52,-7.26,28.89,29.44,-12.62
0.91,0.10,-0.01,-26.12,2.20,-8.24,28.89,29.44,-12.62
0.91,0.10,-0.01,-26.12,2.20,-8.24,28.89,29.44,-12.62
0.94,0.10,0.01,-31.19,3.85,-8.67,28.89,29.44,-12.62
0.94,0.10,0.01,-34.30,3.54,-9.34,28.89,29.44,-12.62
0.97,0.09,0.01,-34.30,3.54,-9.34,28.89,29.44,-12.62
0.98,0.09,0.00,-39.79,3.85,-8.30,29.16,28.50,-13.40
0.98,0.09,0.00,-43.03,2.38,-7.26,29.16,28.50,-13.40
0.99,0.10,0.01,-43.03,2.38,-7.26,29.16,28.50,-13.40
0.99,0.09,-0.00,-48.03,2.87,-5.86,29.16,28.50,-13.40
0.99,0.09,-0.00,-48.03,2.87,-5.86,29.16,28.50,-13.40
1.01,0.07,0.00,-50.42,1.34,-5.74,29.16,28.50,-13.40
1.01,0.07,0.00,-53.47,-1.10,-5.25,29.16,28.50,-13.40
0.99,0.06,-0.01,-53.47,-1.10,-5.25,29.16,28.50,-13.40
0.97,0.11,-0.02,-56.88,-2.26,-4.52,29.16,28.50,-13.40
0.97,0.11,-0.02,-56.88,-2.26,-4.52,29.16,28.50,-13.40
0.96,0.14,-0.01,-62.13,-1.71,-4.52,29.20,26.99,-13.48
0.91,0.14,-0.02,-68.79,-1.77,-6.04,29.20,26.99,-13.48
0.91,0.14,-0.02,-68.79,-1.77,-6.04,29.20,26.99,-13.48
0.92,0.15,0.02,-74.40,-2.93,-7.51,29.20,26.99,-13.48
0.92,0.15,0.02,-74.71,-6.47,-6.77,29.20,26.99,-13.48
0.92,0.11,0.01,-74.71,-6.47,-6.77,29.20,26.99,-13.48
0.92,0.03,-0.00,-74.52,-8.91,-4.82,29.20,26.99,-13.48
0.92,0.03,-0.00,-74.52,-8.91,-4.82,29.20,26.99,-13.48
0.94,-0.02,0.00,-77.33,-8.85,-0.85,29.20,26.99,-13.48
0.94,-0.02,0.00,-81.85,-7.39,3.54,29.20,26.99,-13.48
0.96,-0.05,0.01,-81.85,-7.39,3.54,29.60,24.76,-15.80
1.01,-0.05,0.02,-86.30,-4.15,6.90,29.60,24.76,-15.80
1.01,-0.05,0.02,-94.48,-4.46,10.50,29.60,24.76,-15.80
1.05,0.02,0.02,-94.48,-4.46,10.50,29.60,24.76,-15.80
0.99,0.09,-0.02,-98.14,-5.31,13.37,29.60,24.76,-15.80
0.99,0.09,-0.02,-98.14,-5.31,13.37,29.60,24.76,-15.80
0.90,0.12,-0.01,-96.98,-2.69,12.21,29.60,24.76,-15.80
0.90,0.12,-0.01,-94.79,2.26,8.42,29.60,24.76,-15.80
0.86,0.14,0.04,-94.79,2.26,8.42,29.60,24.76,-15.80
0.86,0.13,0.07,-93.08,4.58,10.38,29.60,24.76,-15.80
0.86,0.13,0.07,-93.08,4.58,10.38,29.44,21.46,-17.40
0.85,0.16,0.03,-85.02,2.32,16.24,29.44,21.46,-17.40
0.82,0.11,0.01,-82.89,0.73,22.16,29.44,21.46,-17.40
0.82,0.11,0.01,-82.89,0.73,22.16,29.44,21.46,-17.40
0.84,0.05,-0.01,-83.19,-1.71,27.04,29.44,21.46,-17.40
0.84,0.05,-0.01,-83.19,-1.71,27.04,29.44,21.46,-17.40
0.79,0.04,-0.04,-89.29,1.71,33.75,29.44,21.46,-17.40
0.87,0.10,-0.03,-95.70,8.48,34.30,29.44,21.46,-17.40
0.87,0.10,-0.03,-95.70,8.48,34.30,29.44,21.46,-17.40
0.99,0.20,0.09,-90.76,18.55,27.10,29.44,21.46,-17.40
0.99,0.20,0.09,-78.12,23.50,18.92,29.82,18.25,-17.13
1.11,0.37,0.03,-78.12,23.50,18.92,29.82,18.25,-17.13
1.12,0.35,0.02,-63.42,21.55,13.92,29.82,18.25,-17.13
1.12,0.35,0.02,-63.42,21.55,13.92,29.82,18.25,-17.13
1.12,0.29,0.01,-53.10,14.34,9.95,29.82,18.25,-17.13
1.08,0.20,-0.05,-50.54,5.62,12.15,29.82,18.25,-17.13
1.08,0.20,-0.05,-50.54,5.62,12.15,29.82,18.25,-17.13
1.01,0.14,-0.07,-55.18,1.16,13.55,29.82,18.25,-17.13
1.01,0.14,-0.07,-64.70,-0.55,15.87,29.82,18.25,-17.13
0.97,0.14,-0.09,-64.70,-0.55,15.87,29.82,18.25,-17.13
0.94,0.18,-0.09,-75.68,-1.71,17.15,28.87,15.27,-18.92
0.94,0.18,-0.09,-75.68,-1.71,17.15,28.87,15.27,-18.92
0.95,0.18,-0.07,-85.33,-4.46,16.48,28.87,15.27,-18.92
0.96,0.19,-0.03,-87.04,-5.86,13.98,28.87,15.27,-18.92
0.96,0.19,-0.03,-87.04,-5.86,13.98,28.87,15.27,-18.92
0.95,0.20,-0.01,-84.78,-4.76,13.18,28.87,15.27,-18.92
0.95,0.20,-0.01,-77.27,-5.13,12.33,28.87,15.27,-18.92
0.92,0.19,-0.01,-77.27,-5.13,12.33,28.87,15.27,-18.92
0.90,0.19,-0.01,-69.89,-4.64,13.61,28.87,15.27,-18.92
0.90,0.19,-0.01,-69.89,-4.64,13.61,29.64,12.68,-19.27
0.87,0.17,-0.05,-63.29,-4.46,15.01,29.64,12.68,-19.27
0.91,0.16,-0.03,-62.19,-5.31,17.64,29.64,12.68,-19.27
0.91,0.16,-0.03,-62.19,-5.31,17.64,29.64,12.68,-19.27
1.03,0.15,-0.03,-59.81,-3.36,15.87,29.64,12.68,-19.27
1.03,0.15,-0.03,-51.76,2.32,9.58,29.64,12.68,-19.27
1.11,0.19,-0.03,-51.76,2.32,9.58,29.64,12.68,-19.27
1.03,0.22,-0.09,-48.52,6.84,3.97,29.64,12.68,-19.27
1.03,0.22,-0.09,-48.52,6.84,3.97,29.64,12.68,-19.27
1.01,0.23,-0.11,-49.80,9.28,1.28,29.64,12.68,-19.27
1.01,0.23,-0.11,-55.36,4.64,0.31,29.41,10.24,-20.17
0.99,0.26,-0.06,-55.36,4.64,0.31,29.41,10.24,-20.17
0.95,0.26,-0.09,-51.94,0.98,-1.53,29.41,10.24,-20.17
0.95,0.26,-0.09,-46.63,-2.50,-2.81,29.41,10.24,-20.17
0.94,0.22,-0.08,-46.63,-2.50,-2.81,29.41,10.24,-20.17
0.96,0.18,-0.07,-44.19,-5.86,-3.72,29.41,10.24,-20.17
0.96,0.18,-0.07,-44.19,-5.86,-3.72,29.41,10.24,-20.17
0.95,0.17,-0.06,-42.11,-8.42,-3.66,29.41,10.24,-20.17
0.95,0.17,-0.06,-42.85,-11.29,-3.05,29.41,10.24,-20.17
0.95,0.18,-0.11,-42.85,-11.29,-3.05,29.41,10.24,-20.17
0.94,0.20,-0.06,-49.93,-15.62,-1.65,28.99,9.00,-19.97
0.94,0.20,-0.06,-49.93,-15.62,-1.65,28.99,9.00,-19.97
0.94,0.21,-0.06,-52.92,-17.15,-0.85,28.99,9.00,-19.97
0.95,0.22,-0.06,-49.93,-17.09,-0.06,28.99,9.00,-19.97
0.95,0.22,-0.06,-49.93,-17.09,-0.06,28.99,9.00,-19.97
0.95,0.22,-0.05,-46.45,-16.54,-0.73,28.99,9.00,-19.97
0.95,0.22,-0.05,-42.48,-15.20,-2.69,28.99,9.00,-19.97
0.95,0.21,-0.06,-42.48,-15.20,-2.69,28.99,9.00,-19.97
0.95,0.20,-0.05,-39.25,-14.22,-4.58,28.99,9.00,-19.97
0.95,0.20,-0.05,-39.25,-14.22,-4.58,28.99,9.00,-19.97
0.95,0.18,-0.03,-34.85,-12.76,-5.19,29.14,7.52,-19.65
0.95,0.17,-0.02,-27.16,-10.25,-5.07,29.14,7.52,-19.65
0.95,0.17,-0.02,-27.16,-10.25,-5.07,29.14,7.52,-19.65
0.96,0.19,-0.02,-18.07,-7.02,-4.58,29.14,7.52,-19.65
0.96,0.19,-0.02,-18.07,-7.02,-4.58,29.14,7.52,-19.65
0.99,0.18,-0.04,-8.97,-3.60,-4.64,29.14,7.52,-19.65
0.95,0.19,-0.05,-2.56,-1.40,-5.37,29.14,7.52,-19.65
0.95,0.19,-0.05,-2.56,-1.40,-5.37,29.14,7.52,-19.65
0.94,0.17,-0.05,-0.37,-1.34,-5.80,29.14,7.52,-19.65
0.94,0.17,-0.05,0.37,-1.22,-5.13,29.14,7.52,-19.65
0.95,0.16,-0.04,0.37,-1.22,-5.13,29.16,7.13,-20.92
0.95,0.15,-0.08,2.99,-0.37,-4.03,29.16,7.13,-20.92
0.95,0.15,-0.08,2.99,-0.37,-4.03,29.16,7.13,-20.92
0.96,0.14,-0.06,1.04,-0.85,-2.32,29.16,7.13,-20.92
0.97,0.16,-0.05,-1.59,-0.92,0.18,29.16,7.13,-20.92
0.97,0.16,-0.05,-1.59,-0.92,0.18,29.16,7.13,-20.92
0.97,0.18,-0.05,-0.24,0.00,1.46,29.16,7.13,-20.92
0.97,0.18,-0.05,-0.24,0.00,1.46,29.16,7.13,-20.92
0.98,0.19,-0.05,2.26,0.55,1.10,29.16,7.13,-20.92
0.99,0.19,-0.05,4.88,1.34,-0.31,29.16,7.13,-20.92
0.99,0.19,-0.05,4.88,1.34,-0.31,29.21,6.53,-19.37
0.98,0.19,-0.04,8.18,2.50,-2.08,29.21,6.53,-19.37
0.98,0.19,-0.04,12.21,3.85,-4.03,29.21,6.53,-19.37
0.97,0.18,-0.05,12.21,3.85,-4.03,29.21,6.53,-19.37
0.96,0.19,-0.04,15.56,4.46,-4.64,29.21,6.53,-19.37
0.96,0.19,-0.04,15.56,4.46,-4.64,29.21,6.53,-19.37
0.94,0.18,-0.05,19.35,5.19,-5.49,29.21,6.53,-19.37
0.94,0.18,-0.05,21.06,4.94,-5.92,29.21,6.53,-19.37
0.93,0.16,-0.06,21.06,4.94,-5.92,29.21,6.53,-19.37
0.94,0.15,-0.05,19.65,3.85,-5.19,29.21,6.53,-19.37
0.94,0.15,-0.05,19.65,3.85,-5.19,29.05,7.34,-19.93
0.94,0.16,-0.05,21.24,3.85,-4.70,29.05,7.34,-19.93
0.94,0.15,-0.06,22.64,4.03,-4.09,29.05,7.34,-19.93
0.94,0.15,-0.06,22.64,4.03,-4.09,29.05,7.34,-19.93
0.94,0.15,-0.05,22.22,3.48,-3.05,29.05,7.34,-19.93
0.94,0.15,-0.05,20.87,3.42,-2.44,29.05,7.34,-19.93
0.94,0.17,-0.05,20.87,3.42,-2.44,29.05,7.34,-19.93
0.94,0.18,-0.05,22.46,3.97,-2.75,29.05,7.34,-19.93
0.94,0.18,-0.05,22.46,3.97,-2.75,29.05,7.34,-19.93
0.95,0.19,-0.04,24.90,4.09,-3.30,29.60,7.69,-20.98
0.95,0.17,-0.06,28.63,4.03,-3.91,29.60,7.69,-20.98
0.95,0.17,-0.06,28.63,4.03,-3.91,29.60,7.69,-20.98
0.95,0.17,-0.06,30.88,3.97,-4.52,29.60,7.69,-20.98
0.95,0.17,-0.06,30.88,3.97,-4.52,29.60,7.69,-20.98
0.96,0.14,-0.06,30.94,3.60,-4.39,29.60,7.69,-20.98
0.97,0.13,-0.04,30.46,3.85,-4.27,29.60,7.69,-20.98
0.97,0.13,-0.04,30.46,3.85,-4.27,29.60,7.69,-20.98
0.99,0.17,-0.04,31.68,5.68,-4.52,29.60,7.69,-20.98
0.99,0.17,-0.04,31.68,5.68,-4.52,29.60,7.69,-20.98
0.97,0.19,-0.08,35.16,7.02,-6.16,29.68,8.39,-20.29
0.97,0.18,-0.06,35.28,6.10,-9.03,29.68,8.39,-20.29
0.97,0.18,-0.06,35.28,6.10,-9.03,29.68,8.39,-20.29
0.96,0.15,-0.04,34.00,4.52,-10.99,29.68,8.39,-20.29
0.95,0.12,-0.05,34.48,4.39,-10.25,29.68,8.39,-20.29
0.95,0.12,-0.05,34.48,4.39,-10.25,29.68,8.39,-20.29
0.95,0.13,-0.04,32.59,3.91,-7.93,29.68,8.39,-20.29
0.95,0.13,-0.04,32.59,3.91,-7.93,29.68,8.39,-20.29
0.96,0.15,-0.04,29.60,3.23,-5.37,29.68,8.39,-20.29
0.94,0.15,-0.04,28.26,2.87,-3.11,29.68,8.39,-20.29
0.94,0.15,-0.04,28.26,2.87,-3.11,29.53,9.08,-19.31
0.96,0.17,-0.02,27.28,2.56,-1.34,29.53,9.08,-19.31
0.93,0.14,-0.03,26.86,1.83,1.59,29.53,9.08,-19.31
0.93,0.14,-0.03,26.86,1.83,1.59,29.53,9.08,-19.31
0.94,0.16,-0.02,26.31,2.56,2.32,29.53,9.08,-19.31
0.94,0.16,-0.02,26.31,2.56,2.32,29.53,9.08,-19.31
0.95,0.19,-0.02,28.50,4.03,2.26,29.53,9.08,-19.31
0.97,0.16,-0.05,31.01,4.76,1.77,29.53,9.08,-19.31
0.97,0.16,-0.05,31.01,4.76,1.77,29.53,9.08,-19.31
0.96,0.12,-0.04,30.21,4.82,0.67,29.53,9.08,-19.31
0.96,0.12,-0.04,30.21,4.82,0.67,30.13,9.69,-19.91
0.95,0.11,-0.03,25.70,5.25,2.26,30.13,9.69,-19.91
0.95,0.14,-0.05,22.03,6.35,4.21,30.13,9.69,-19.91
0.95,0.14,-0.05,22.03,6.35,4.21,30.13,9.69,-19.91
0.95,0.18,-0.05,17.94,6.35,5.07,30.13,9.69,-19.91
0.95,0.18,-0.05,14.04,4.76,4.94,30.13,9.69,-19.91
0.93,0.19,-0.04,14.04,4.76,4.94,30.13,9.69,-19.91
0.94,0.19,-0.04,14.47,3.91,2.69,30.13,9.69,-19.91
0.94,0.19,-0.04,14.47,3.91,2.69,30.13,9.69,-19.91
0.95,0.22,-0.04,17.33,4.46,-1.40,30.13,9.69,-19.91
0.95,0.22,-0.04,19.10,2.87,-2.69,29.87,9.53,-19.36
0.95,0.23,-0.04,19.10,2.87,-2.69,29.87,9.53,-19.36
0.96,0.23,-0.03,20.87,0.43,-4.39,29.87,9.53,-19.36
0.96,0.23,-0.03,24.54,-1.71,-6.53,29.87,9.53,-19.36
0.96,0.19,-0.04,24.54,-1.71,-6.53,29.87,9.53,-19.36
0.96,0.14,-0.04,25.39,-3.48,-7.26,29.87,9.53,-19.36
0.96,0.14,-0.04,25.39,-3.48,-7.26,29.87,9.53,-19.36
0.96,0.13,-0.03,24.48,-3.97,-6.16,29.87,9.53,-19.36
0.96,0.13,-0.03,23.68,-3.91,-4.33,29.87,9.53,-19.36
0.95,0.14,-0.03,23.68,-3.91,-4.33,29.87,9.53,-19.36
0.95,0.16,-0.03,23.93,-3.60,-3.05,29.86,10.79,-19.10
0.95,0.16,-0.03,23.93,-3.60,-3.05,29.86,10.79,-19.10
0.95,0.17,-0.03,25.45,-2.75,-3.05,29.86,10.79,-19.10
0.95,0.15,-0.04,27.28,-2.87,-3.48,29.86,10.79,-19.10
0.95,0.15,-0.04,27.28,-2.87,-3.48,29.86,10.79,-19.10
0.95,0.14,-0.03,26.98,-3.48,-4.09,29.86,10.79,-19.10
0.95,0.14,-0.03,25.45,-3.78,-4.39,29.86,10.79,-19.10
0.96,0.17,-0.02,25.45,-3.78,-4.39,29.86,10.79,-19.10
0.96,0.16,-0.01,23.99,-4.39,-4.33,29.86,10.79,-19.10
0.96,0.16,-0.01,23.99,-4.39,-4.33,29.86,10.79,-19.10
0.96,0.15,-0.01,25.02,-4.82,-4.52,29.81,11.63,-19.45
0.96,0.15,-0.01,25.82,-4.09,-4.52,29.81,11.63,-19.45
0.96,0.15,-0.01,25.82,-4.09,-4.52,29.81,11.63,-19.45
0.97,0.14,-0.01,27.65,-3.30,-4.76,29.81,11.63,-19.45
0.97,0.14,-0.01,27.65,-3.30,-4.76,29.81,11.63,-19.45
0.98,0.15,-0.01,30.46,-1.40,-5.49,29.81,11.63,-19.45
0.98,0.16,-0.03,32.65,-0.18,-6.84,29.81,11.63,-19.45
0.98,0.16,-0.03,32.65,-0.18,-6.84,29.81,11.63,-19.45
0.97,0.14,-0.02,31.43,-0.79,-7.87,29.81,11.63,-19.45
0.97,0.14,-0.02,30.09,-1.04,-8.12,29.81,11.63,-19.45
0.97,0.14,-0.01,30.09,-1.04,-8.12,29.82,12.76,-18.40
0.96,0.14,-0.02,30.94,-0.79,-8.00,29.82,12.76,-18.40
0.96,0.14,-0.02,30.94,-0.79,-8.00,29.82,12.76,-18.40
0.97,0.14,-0.01,32.23,-1.04,-8.73,29.82,12.76,-18.40
0.97,0.12,-0.02,34.06,-1.34,-9.22,29.82,12.76,-18.40
0.97,0.12,-0.02,34.06,-1.34,-9.22,29.82,12.76,-18.40
0.98,0.10,-0.03,32.47,-1.71,-8.54,29.82,12.76,-18.40
0.98,0.10,-0.03,32.47,-1.71,-8.54,29.82,12.76,-18.40
0.98,0.09,-0.02,27.95,-1.53,-7.39,29.82,12.76,-18.40
0.96,0.10,-0.02,23.50,-1.04,-5.13,29.82,12.76,-18.40
0.96,0.10,-0.02,23.50,-1.04,-5.13,29.38,13.89,-19.03
0.98,0.12,-0.00,21.36,-1.10,-2.87,29.38,13.89,-19.03
0.96,0.13,-0.01,21.06,-1.40,-0.92,29.38,13.89,-19.03
0.96,0.13,-0.01,21.06,-1.40,-0.92,29.38,13.89,-19.03
0.95,0.14,-0.00,21.48,-1.71,0.06,29.38,13.89,-19.03
0.95,0.14,-0.00,21.48,-1.71,0.06,29.38,13.89,-19.03
0.95,0.13,0.00,22.64,-1.71,-0.49,29.38,13.89,-19.03
0.94,0.12,0.01,25.21,-1.46,-0.73,29.38,13.89,-19.03
0.94,0.12,0.01,25.21,-1.46,-0.73,29.38,13.89,-19.03
0.94,0.15,0.02,29.30,-1.10,-0.55,29.54,13.84,-19.62
0.94,0.15,0.02,33.87,-0.67,-1.40,29.54,13.84,-19.62
0.94,0.15,0.02,33.87,-0.67,-1.40,29.54,13.84,-19.62
0.94,0.15,0.01,38.39,-0.06,-2.81,29.54,13.84,-19.62
0.94,0.15,0.01,38.39,-0.06,-2.81,29.54,13.84,-19.62
0.95,0.13,0.01,40.34,-0.18,-3.78,29.54,13.84,-19.62
0.94,0.10,0.00,39.06,-1.22,-3.72,29.54,13.84,-19.62
0.94,0.10,0.00,39.06,-1.22,-3.72,29.54,13.84,-19.62
0.95,0.08,-0.00,34.48,-2.56,-1.28,29.54,13.84,-19.62
0.95,0.08,-0.00,34.48,-2.56,-1.28,29.54,13.84,-19.62
0.96,0.09,0.01,28.26,-3.78,2.44,29.82,14.92,-18.93
0.96,0.11,0.02,24.90,-3.91,4.82,29.82,14.92,-18.93
0.96,0.11,0.02,24.90,-3.91,4.82,29.82,14.92,-18.93
0.96,0.13,0.02,24.54,-3.17,5.86,29.82,14.92,-18.93
0.96,0.14,0.02,24.60,-2.81,6.23,29.82,14.92,-18.93
0.96,0.14,0.02,24.60,-2.81,6.23,29.82,14.92,-18.93
0.96,0.14,0.02,24.41,-2.32,5.92,29.82,14.92,-18.93
0.96,0.14,0.02,24.41,-2.32,5.92,29.82,14.92,-18.93
0.93,0.14,0.03,24.96,-1.65,4.64,29.82,14.92,-18.93
0.95,0.16,0.04,27.53,-0.43,2.62,29.82,14.92,-18.93
0.95,0.16,0.04,27.53,-0.43,2.62,29.37,16.20,-19.13
0.95,0.16,0.03,30.33,-0.31,0.98,29.37,16.20,-19.13
0.96,0.17,0.03,33.87,0.43,-1.22,29.37,16.20,-19.13
0.96,0.17,0.03,33.87,0.43,-1.22,29.37,16.20,-19.13
0.97,0.14,0.02,37.72,1.04,-3.54,29.37,16.20,-19.13
0.97,0.14,0.02,37.72,1.04,-3.54,29.37,16.20,-19.13
0.98,0.13,0.02,39.67,1.22,-4.76,29.37,16.20,-19.13
0.97,0.11,0.02,39.12,1.59,-4.21,29.37,16.20,-19.13
0.97,0.11,0.02,39.12,1.59,-4.21,29.37,16.20,-19.13
0.96,0.10,0.01,37.66,2.14,-3.66,29.37,16.20,-19.13
0.96,0.10,0.01,37.66,2.14,-3.66,29.59,16.69,-19.02
0.96,0.10,0.02,34.36,2.08,-2.32,29.59,16.69,-19.02
0.96,0.11,0.02,30.09,1.77,-0.79,29.59,16.69,-19.02
0.96,0.11,0.02,30.09,1.77,-0.79,29.59,16.69,-19.02
0.96,0.13,0.03,28.32,1.53,0.00,29.59,16.69,-19.02
0.96,0.13,0.03,29.72,2.08,-0.55,29.59,16.69,-19.02
0.96,0.14,0.04,29.72,2.08,-0.55,29.59,16.69,-19.02
0.96,0.15,0.05,33.75,2.75,-1.40,29.59,16.69,-19.02
0.96,0.15,0.05,33.75,2.75,-1.40,29.59,16.69,-19.02
0.96,0.16,0.05,39.55,3.30,-2.81,29.59,16.69,-19.02
0.96,0.16,0.05,46.51,4.52,-4.39,29.14,18.24,-19.01
0.96,0.15,0.06,46.51,4.52,-4.39,29.14,18.24,-19.01
0.96,0.15,0.06,55.30,6.41,-5.92,29.14,18.24,-19.01
0.96,0.15,0.06,65.19,8.97,-6.96,29.14,18.24,-19.01
0.96,0.14,0.06,65.19,8.97,-6.96,29.14,18.24,-19.01
0.96,0.12,0.05,74.46,11.84,-8.00,29.14,18.24,-19.01
0.96,0.12,0.05,74.46,11.84,-8.00,29.14,18.24,-19.01
0.96,0.09,0.03,81.85,14.65,-7.75,29.14,18.24,-19.01
0.96,0.09,0.03,84.72,15.99,-6.47,29.14,18.24,-19.01
0.96,0.06,0.00,84.72,15.99,-6.47,29.14,18.24,-19.01
0.96,0.01,-0.02,80.87,15.14,-4.64,29.47,20.91,-17.81
0.96,0.01,-0.02,80.87,15.14,-4.64,29.47,20.91,-17.81
0.93,0.00,-0.02,71.17,12.51,-1.22,29.47,20.91,-17.81
0.93,0.03,-0.01,62.38,10.93,2.69,29.47,20.91,-17.81
0.93,0.03,-0.01,62.38,10.93,2.69,29.47,20.91,-17.81
0.95,0.04,0.00,53.53,9.22,6.35,29.47,20.91,-17.81
0.95,0.04,0.00,46.75,7.93,9.22,29.47,20.91,-17.81
0.96,0.06,0.01,46.75,7.93,9.22,29.47,20.91,-17.81
0.95,0.10,0.02,44.98,7.51,11.29,29.47,20.91,-17.81
0.95,0.10,0.02,44.98,7.51,11.29,29.47,20.91,-17.81
0.96,0.14,0.03,46.20,7.81,10.56,30.18,22.66,-16.09
0.98,0.18,0.04,49.13,8.48,8.18,30.18,22.66,-16.09
0.98,0.18,0.04,49.13,8.48,8.18,30.18,22.66,-16.09
0.98,0.19,0.04,55.54,8.36,4.94,30.18,22.66,-16.09
0.98,0.19,0.04,55.54,8.36,4.94,30.18,22.66,-16.09
0.98,0.19,0.04,63.84,8.24,1.22,30.18,22.66,-16.09
0.98,0.14,0.04,70.92,9.09,-2.20,30.18,22.66,-16.09
0.98,0.14,0.04,70.92,9.09,-2.20,30.18,22.66,-16.09
1.00,0.09,0.02,78.19,8.36,-4.39,30.18,22.66,-16.09
1.00,0.09,0.02,78.19,8.36,-4.39,30.18,22.66,-16.09
0.99,0.07,0.01,78.92,9.83,-4.09,30.18,24.24,-15.78
0.98,0.08,0.01,78.80,9.83,-3.30,30.18,24.24,-15.78
0.98,0.08,0.01,78.80,9.83,-3.30,30.18,24.24,-15.78
0.97,0.09,-0.00,76.48,8.67,-2.26,30.18,24.24,-15.78
0.97,0.08,0.00,67.38,7.93,-1.28,30.18,24.24,-15.78
0.97,0.08,0.00,67.38,7.93,-1.28,30.18,24.24,-15.78
0.96,0.08,0.02,58.11,6.35,-0.24,30.18,24.24,-15.78
0.96,0.08,0.02,58.11,6.35,-0.24,30.18,24.24,-15.78
0.97,0.10,0.02,54.57,4.64,0.31,30.18,24.24,-15.78
0.97,0.14,0.03,53.16,3.91,-0.31,30.10,26.16,-13.49
0.97,0.14,0.03,53.16,3.91,-0.31,30.10,26.16,-13.49
0.97,0.16,0.04,54.14,3.85,-3.42,30.10,26.16,-13.49
0.97,0.16,0.05,57.86,5.13,-7.20,30.10,26.16,-13.49
0.97,0.16,0.05,57.86,5.13,-7.20,30.10,26.16,-13.49
0.98,0.16,0.05,65.80,7.02,-11.96,30.10,26.16,-13.49
0.98,0.16,0.05,65.80,7.02,-11.96,30.10,26.16,-13.49
0.98,0.13,0.05,74.46,9.52,-17.09,30.10,26.16,-13.49
0.98,0.08,0.05,83.07,12.57,-21.42,30.10,26.16,-13.49
0.98,0.08,0.05,83.07,12.57,-21.42,30.10,26.16,-13.49
0.98,0.05,0.05,89.72,15.44,-24.17,29.82,29.19,-11.66
0.98,0.05,0.05,92.59,19.17,-23.74,29.82,29.19,-11.66
0.97,0.03,0.05,92.59,19.17,-23.74,29.82,29.19,-11.66
0.96,0.05,0.01,93.63,22.58,-21.79,29.82,29.19,-11.66
0.96,0.05,0.01,93.63,22.58,-21.79,29.82,29.19,-11.66
0.95,0.04,-0.01,93.57,22.34,-20.94,29.82,29.19,-11.66
0.94,0.01,-0.01,86.00,22.95,-19.29,29.82,29.19,-11.66
0.94,0.01,-0.01,86.00,22.95,-19.29,29.82,29.19,-11.66
0.94,0.01,-0.02,83.13,21.85,-17.70,29.82,29.19,-11.66
0.94,0.01,-0.02,83.13,21.85,-17.70,29.82,29.19,-11.66
0.94,0.02,-0.02,82.46,21.91,-15.62,29.32,31.62,-9.61
0.94,0.02,-0.01,81.79,22.34,-14.40,29.32,31.62,-9.61
0.94,0.02,-0.01,81.79,22.34,-14.40,29.32,31.62,-9.61
0.94,0.03,-0.01,81.60,22.89,-14.16,29.32,31.62,-9.61
0.95,0.04,-0.01,83.62,23.99,-14.22,29.32,31.62,-9.61
0.95,0.04,-0.01,83.62,23.99,-14.22,29.32,31.62,-9.61
0.95,0.05,0.00,88.07,24.60,-15.62,29.32,31.62,-9.61
0.95,0.05,0.00,88.07,24.60,-15.62,29.32,31.62,-9.61
0.95,0.04,0.02,92.41,26.18,-17.88,29.32,31.62,-9.61
0.97,0.05,0.01,96.01,28.20,-20.39,29.32,31.62,-9.61
0.97,0.05,0.01,96.01,28.20,-20.39,29.72,34.40,-7.42
0.93,0.04,-0.02,101.38,27.95,-21.36,29.72,34.40,-7.42
0.93,0.04,-0.02,104.86,29.79,-19.53,29.72,34.40,-7.42
0.94,0.01,-0.02,104.86,29.79,-19.53,29.72,34.40,-7.42
0.94,-0.01,-0.02,108.76,29.05,-15.87,29.72,34.40,-7.42
0.94,-0.01,-0.02,108.76,29.05,-15.87,29.72,34.40,-7.42
0.95,-0.00,-0.01,108.83,27.59,-11.54,29.72,34.40,-7.42
0.93,-0.01,-0.01,108.70,25.02,-8.79,29.72,34.40,-7.42
0.93,-0.01,-0.01,108.70,25.02,-8.79,29.72,34.40,-7.42
0.92,0.01,-0.03,108.89,23.38,-7.45,29.72,34.40,-7.42
0.92,0.01,-0.03,108.89,23.38,-7.45,29.41,36.28,-3.93
0.91,0.00,-0.05,107.60,22.09,-7.69,29.41,36.28,-3.93
0.93,-0.02,-0.05,103.94,21.48,-9.28,29.41,36.28,-3.93
0.93,-0.02,-0.05,103.94,21.48,-9.28,29.41,36.28,-3.93
0.98,-0.02,-0.05,101.56,19.41,-11.11,29.41,36.28,-3.93
0.98,-0.02,-0.05,100.10,15.99,-9.03,29.41,36.28,-3.93
0.95,-0.04,-0.04,100.10,15.99,-9.03,29.41,36.28,-3.93
0.95,-0.03,-0.04,99.73,15.93,-6.59,29.41,36.28,-3.93
0.95,-0.03,-0.04,99.73,15.93,-6.59,29.41,36.28,-3.93
0.94,-0.01,-0.03,100.52,15.81,-5.80,29.41,36.28,-3.93
0.94,-0.01,-0.03,102.42,16.42,-5.55,28.69,38.16,-0.94
0.96,-0.01,-0.04,102.42,16.42,-5.55,28.69,38.16,-0.94
1.00,-0.06,-0.05,105.16,16.72,-6.23,28.69,38.16,-0.94
1.00,-0.06,-0.05,108.15,16.11,-6.53,28.69,38.16,-0.94
1.02,-0.05,-0.08,108.15,16.11,-6.53,28.69,38.16,-0.94
1.04,-0.09,-0.09,104.13,12.27,-6.59,28.69,38.16,-0.94
1.04,-0.09,-0.09,104.13,12.27,-6.59,28.69,38.16,-0.94
1.06,-0.11,-0.10,95.89,7.93,-5.00,28.69,38.16,-0.94
1.06,-0.11,-0.10,87.46,2.08,-3.66,28.69,38.16,-0.94
1.05,-0.09,-0.07,87.46,2.08,-3.66,28.69,38.16,-0.94
1.02,-0.16,-0.03,82.40,-2.87,-3.97,28.44,39.88,1.78
1.02,-0.16,-0.03,81.12,-6.59,-12.82,28.44,39.88,1.78
1.02,-0.13,-0.03,81.12,-6.59,-12.82,28.44,39.88,1.78
0.98,-0.11,-0.09,80.99,-8.24,-24.48,28.44,39.88,1.78
0.98,-0.11,-0.09,80.99,-8.24,-24.48,28.44,39.88,1.78
0.99,-0.11,-0.05,81.91,-6.65,-35.58,28.44,39.88,1.78
0.99,-0.11,-0.05,84.41,-5.62,-40.16,28.44,39.88,1.78
0.98,0.02,-0.07,84.41,-5.62,-40.16,28.44,39.88,1.78
1.03,0.14,0.06,80.02,-3.23,-24.23,28.44,39.88,1.78
1.03,0.14,0.06,80.02,-3.23,-24.23,28.44,39.88,1.78
0.97,0.12,0.03,64.88,-5.55,7.63,27.28,40.87,4.27
0.96,0.09,0.01,64.94,-3.91,5.55,27.28,40.87,4.27
0.96,0.09,0.01,64.94,-3.91,5.55,27.28,40.87,4.27
1.00,-0.00,-0.01,77.51,-2.32,-0.24,27.28,40.87,4.27
1.00,-0.00,-0.01,77.51,-2.32,-0.24,27.28,40.87,4.27
0.97,-0.02,-0.02,89.36,-2.14,-1.22,27.28,40.87,4.27
0.95,-0.03,-0.04,92.71,-1.71,-1.53,27.28,40.87,4.27
0.95,-0.03,-0.04,92.71,-1.71,-1.53,27.28,40.87,4.27
0.89,-0.04,-0.10,89.84,0.24,-2.14,27.28,40.87,4.27
0.89,-0.04,-0.10,89.84,0.24,-2.14,27.28,40.87,4.27
0.93,-0.05,-0.08,87.46,7.02,-2.44,27.28,41.58,5.69
0.92,-0.05,-0.08,86.30,12.70,-3.36,27.28,41.58,5.69
0.92,-0.05,-0.08,86.30,12.70,-3.36,27.28,41.58,5.69
0.95,-0.04,-0.07,86.30,18.68,-4.82,27.28,41.58,5.69
0.96,-0.08,-0.06,84.66,21.79,-3.54,27.28,41.58,5.69
0.96,-0.08,-0.06,84.66,21.79,-3.54,27.28,41.58,5.69
0.99,-0.07,-0.03,80.26,21.67,-1.40,27.28,41.58,5.69
0.99,-0.07,-0.03,80.26,21.67,-1.40,27.28,41.58,5.69
1.00,-0.05,-0.02,78.43,18.01,-1.59,27.28,41.58,5.69
0.99,-0.02,-0.03,78.80,14.16,-1.95,27.60,41.56,9.52
0.99,-0.02,-0.03,78.80,14.16,-1.95,27.60,41.56,9.52
1.00,-0.00,0.01,80.32,15.81,-2.44,27.60,41.56,9.52
1.02,-0.03,0.01,81.79,13.92,-2.93,27.60,41.56,9.52
1.02,-0.03,0.01,81.79,13.92,-2.93,27.60,41.56,9.52
0.99,-0.05,-0.05,84.53,10.07,-4.03,27.60,41.56,9.52
0.99,-0.05,-0.05,84.53,10.07,-4.03,27.60,41.56,9.52
0.97,-0.06,-0.07,89.17,10.25,-4.09,27.60,41.56,9.52
0.97,-0.07,-0.07,89.97,9.40,-3.36,27.60,41.56,9.52
0.97,-0.07,-0.07,89.97,9.40,-3.36,27.60,41.56,9.52
0.96,-0.08,-0.11,87.16,8.06,-2.62,27.53,41.93,10.73
0.97,-0.08,-0.09,86.12,8.18,-2.75,27.53,41.93,10.73
0.97,-0.08,-0.09,86.12,8.18,-2.75,27.53,41.93,10.73
0.96,-0.07,-0.09,83.25,5.74,-2.01,27.53,41.93,10.73
0.96,-0.07,-0.09,83.25,5.74,-2.01,27.53,41.93,10.73
0.97,-0.06,-0.06,79.41,3.36,-1.71,27.53,41.93,10.73
0.97,-0.06,-0.04,76.66,0.92,-1.34,27.53,41.93,10.73
0.97,-0.06,-0.04,76.66,0.92,-1.34,27.53,41.93,10.73
0.98,-0.02,-0.03,73.91,-1.40,-2.44,27.53,41.93,10.73
0.98,-0.02,-0.03,73.91,-1.40,-2.44,27.53,41.93,10.73
0.99,-0.02,-0.01,69.34,-1.34,-4.70,26.76,42.14,14.05
0.99,-0.05,-0.07,65.37,-0.24,-6.04,26.76,42.14,14.05
0.99,-0.05,-0.07,65.37,-0.24,-6.04,26.76,42.14,14.05
0.97,-0.06,-0.10,69.52,0.18,-5.92,26.76,42.14,14.05
0.98,-0.06,-0.08,76.54,3.30,-4.58,26.76,42.14,14.05
0.98,-0.06,-0.08,76.54,3.30,-4.58,26.76,42.14,14.05
0.96,-0.08,-0.04,80.93,2.87,-3.36,26.76,42.14,14.05
0.96,-0.08,-0.04,80.93,2.87,-3.36,26.76,42.14,14.05
0.92,-0.05,-0.10,82.64,1.22,-3.60,26.76,42.14,14.05
0.93,-0.05,-0.06,83.92,3.85,-4.15,26.76,42.14,14.05
0.93,-0.05,-0.06,83.92,3.85,-4.15,26.53,42.24,16.33
0.92,-0.04,-0.06,84.11,4.03,-5.25,26.53,42.24,16.33
0.92,-0.04,-0.06,84.90,4.64,-6.84,26.53,42.24,16.33
0.92,-0.04,-0.09,84.90,4.64,-6.84,26.53,42.24,16.33
0.94,-0.03,-0.09,86.85,5.74,-7.63,26.53,42.24,16.33
0.94,-0.03,-0.09,86.85,5.74,-7.63,26.53,42.24,16.33
0.94,-0.03,-0.12,89.29,5.13,-6.41,26.53,42.24,16.33
0.95,-0.03,-0.10,97.29,6.16,-7.51,26.53,42.24,16.33
0.95,-0.03,-0.10,97.29,6.16,-7.51,26.53,42.24,16.33
0.98,-0.03,-0.10,105.83,8.91,-9.83,26.53,42.24,16.33
0.98,-0.03,-0.10,105.83,8.91,-9.83,26.00,41.44,20.42
1.02,-0.05,-0.04,112.85,9.83,-9.58,26.00,41.44,20.42
1.00,-0.06,-0.10,116.52,7.08,-6.84,26.00,41.44,20.42
1.00,-0.06,-0.10,116.52,7.08,-6.84,26.00,41.44,20.42
1.00,-0.06,-0.07,121.70,8.91,-5.25,26.00,41.44,20.42
0.99,-0.05,-0.03,122.50,9.70,-3.17,26.00,41.44,20.42
0.99,-0.05,-0.03,122.50,9.70,-3.17,26.00,41.44,20.42
0.97,-0.04,-0.02,116.52,7.39,-1.71,26.00,41.44,20.42
0.97,-0.04,-0.02,116.52,7.39,-1.71,26.00,41.44,20.42
0.97,-0.06,-0.04,107.18,5.19,-1.16,26.00,41.44,20.42
0.99,-0.08,-0.09,99.49,2.26,0.06,25.87,40.26,23.25
0.99,-0.08,-0.09,99.49,2.26,0.06,25.87,40.26,23.25
0.97,-0.10,-0.10,93.69,-0.37,1.83,25.87,40.26,23.25
0.97,-0.10,-0.10,86.79,-1.40,2.14,25.87,40.26,23.25
0.96,-0.09,-0.11,86.79,-1.40,2.14,25.87,40.26,23.25
0.97,-0.07,-0.16,84.47,-2.32,-0.79,25.87,40.26,23.25
0.97,-0.07,-0.16,84.47,-2.32,-0.79,25.87,40.26,23.25
0.93,-0.08,-0.14,92.22,-3.36,-5.19,25.87,40.26,23.25
0.93,-0.07,-0.11,97.60,-1.53,-9.95,25.87,40.26,23.25
0.93,-0.07,-0.11,97.60,-1.53,-9.95,25.87,40.26,23.25
0.93,-0.06,-0.15,98.63,0.43,-14.34,26.01,39.07,26.22
0.93,-0.06,-0.15,105.22,-0.61,-17.64,26.01,39.07,26.22
0.93,-0.04,-0.15,105.22,-0.61,-17.64,26.01,39.07,26.22
0.94,-0.06,-0.13,110.66,-0.61,-19.29,26.01,39.07,26.22
0.94,-0.06,-0.13,110.66,-0.61,-19.29,26.01,39.07,26.22
0.99,-0.06,-0.11,107.60,0.49,-17.58,26.01,39.07,26.22
0.99,-0.06,-0.11,100.71,1.04,-12.33,26.01,39.07,26.22
1.01,-0.05,-0.07,100.71,1.04,-12.33,26.01,39.07,26.22
1.03,-0.06,-0.03,91.86,0.55,-6.71,26.01,39.07,26.22
1.03,-0.06,-0.03,91.86,0.55,-6.71,24.60,38.05,27.78
1.05,-0.09,-0.00,86.06,0.73,-3.91,24.60,38.05,27.78
1.07,-0.08,-0.01,80.63,2.38,-3.66,24.60,38.05,27.78
1.07,-0.08,-0.01,80.63,2.38,-3.66,24.60,38.05,27.78
1.07,-0.10,-0.02,77.27,1.77,-3.05,24.60,38.05,27.78
1.07,-0.10,-0.02,75.07,-1.16,-2.08,24.60,38.05,27.78
1.05,-0.09,-0.03,75.07,-1.16,-2.08,24.60,38.05,27.78
1.05,-0.09,-0.02,71.11,-3.42,-2.38,24.60,38.05,27.78
1.05,-0.09,-0.02,71.11,-3.42,-2.38,24.60,38.05,27.78
1.03,-0.09,-0.06,66.22,-5.55,-2.20,24.60,38.05,27.78
1.03,-0.09,-0.06,63.17,-9.34,-2.32,25.60,37.05,30.04
0.99,-0.09,-0.10,63.17,-9.34,-2.32,25.60,37.05,30.04
0.98,-0.09,-0.13,59.39,-11.60,-4.09,25.60,37.05,30.04
0.98,-0.09,-0.13,52.06,-12.39,-5.00,25.60,37.05,30.04
0.99,-0.11,-0.18,52.06,-12.39,-5.00,25.60,37.05,30.04
0.96,0.06,-0.22,44.56,-14.22,-2.32,25.60,37.05,30.04
0.96,0.06,-0.22,44.56,-14.22,-2.32,25.60,37.05,30.04
0.95,-0.18,-0.21,43.33,-15.50,10.80,25.60,37.05,30.04
0.95,-0.18,-0.21,56.03,-12.70,5.00,25.60,37.05,30.04
1.00,-0.17,-0.16,56.03,-12.70,5.00,25.60,37.05,30.04
1.00,-0.10,-0.12,58.72,-8.48,-8.00,25.34,35.35,30.88
1.00,-0.10,-0.12,49.01,-5.55,-11.54,25.34,35.35,30.88
1.02,-0.08,-0.03,49.01,-5.55,-11.54,25.34,35.35,30.88
1.03,-0.10,-0.07,38.82,-6.04,-8.12,25.34,35.35,30.88
1.03,-0.10,-0.07,38.82,-6.04,-8.12,25.34,35.35,30.88
1.00,-0.12,-0.06,37.11,-7.87,-4.88,25.34,35.35,30.88
1.00,-0.12,-0.06,36.80,-9.70,-5.62,25.34,35.35,30.88
1.00,-0.08,-0.02,36.80,-9.70,-5.62,25.34,35.35,30.88
0.97,-0.02,-0.00,39.25,-12.70,-5.55,25.34,35.35,30.88
0.97,-0.02,-0.00,39.25,-12.70,-5.55,25.34,35.35,30.88
0.95,0.00,0.05,39.79,-19.71,-0.61,26.28,35.34,30.21
0.91,-0.04,0.04,40.71,-28.44,7.26,26.28,35.34,30.21
0.91,-0.04,0.04,40.71,-28.44,7.26,26.28,35.34,30.21
0.88,-0.00,-0.04,42.42,-30.76,8.79,26.28,35.34,30.21
0.88,-0.00,-0.04,40.04,-26.31,12.02,26.28,35.34,30.21
0.91,-0.07,-0.05,40.04,-26.31,12.02,26.28,35.34,30.21
0.90,-0.09,-0.08,39.12,-23.62,14.53,26.28,35.34,30.21
0.90,-0.09,-0.08,39.12,-23.62,14.53,26.28,35.34,30.21
0.93,-0.12,-0.10,37.96,-19.59,11.84,26.28,35.34,30.21
0.93,-0.12,-0.10,43.15,-19.17,5.55,26.28,35.34,30.21
0.97,-0.13,-0.07,43.15,-19.17,5.55,27.05,34.64,30.90
0.95,-0.12,-0.03,47.18,-20.39,1.46,27.05,34.64,30.90
0.95,-0.12,-0.03,48.58,-19.10,-2.20,27.05,34.64,30.90
0.94,-0.09,-0.01,48.58,-19.10,-2.20,27.05,34.64,30.90
0.95,-0.10,0.02,48.40,-15.44,-3.05,27.05,34.64,30.90
0.95,-0.10,0.02,48.40,-15.44,-3.05,27.05,34.64,30.90
0.93,-0.08,0.02,46.94,-14.34,-1.04,27.05,34.64,30.90
0.93,-0.08,0.02,42.85,-16.24,2.32,27.05,34.64,30.90
0.92,-0.06,0.02,42.85,-16.24,2.32,27.05,34.64,30.90
0.93,-0.04,0.03,39.37,-18.25,5.62,27.40,33.64,30.92
0.93,-0.04,0.03,37.05,-21.06,9.70,27.40,33.64,30.92
0.92,-0.03,0.02,37.05,-21.06,9.70,27.40,33.64,30.92
0.92,-0.05,-0.02,33.02,-23.86,15.81,27.40,33.64,30.92
0.92,-0.05,-0.02,33.02,-23.86,15.81,27.40,33.64,30.92
0.94,-0.07,-0.05,31.86,-22.40,18.49,27.40,33.64,30.92
0.94,-0.07,-0.05,35.22,-20.45,16.66,27.40,33.64,30.92
0.97,-0.11,-0.04,35.22,-20.45,16.66,27.40,33.64,30.92
0.95,-0.09,-0.06,39.31,-19.78,11.78,27.40,33.64,30.92
0.95,-0.09,-0.06,39.31,-19.78,11.78,27.40,33.64,30.92
0.90,-0.03,-0.09,35.40,-19.47,10.56,28.98,31.92,31.40
0.84,0.02,-0.11,26.00,-14.34,17.70,28.98,31.92,31.40
0.84,0.02,-0.11,26.00,-14.34,17.70,28.98,31.92,31.40
0.88,-0.05,-0.09,22.52,-3.97,24.84,28.98,31.92,31.40
0.88,-0.05,-0.09,27.10,3.60,20.69,28.98,31.92,31.40
0.97,-0.07,-0.05,27.10,3.60,20.69,28.98,31.92,31.40
1.01,-0.08,-0.01,29.48,3.11,16.85,28.98,31.92,31.40
1.01,-0.08,-0.01,29.48,3.11,16.85,28.98,31.92,31.40
1.01,-0.06,0.03,28.20,-2.50,14.71,28.98,31.92,31.40
1.01,-0.06,0.03,28.87,-7.87,12.51,28.98,31.92,31.40
1.00,-0.04,0.05,28.87,-7.87,12.51,29.24,31.54,32.10
0.99,-0.06,0.04,33.51,-11.72,9.77,29.24,31.54,32.10
0.99,-0.06,0.04,41.63,-13.18,4.76,29.24,31.54,32.10
1.00,-0.09,0.02,41.63,-13.18,4.76,29.24,31.54,32.10
1.02,-0.10,-0.01,48.16,-11.47,-1.46,29.24,31.54,32.10
1.02,-0.10,-0.01,48.16,-11.47,-1.46,29.24,31.54,32.10
1.02,-0.10,-0.03,51.64,-8.12,-7.08,29.24,31.54,32.10
1.02,-0.10,-0.03,51.57,-4.03,-11.78,29.24,31.54,32.10
1.03,-0.06,-0.01,51.57,-4.03,-11.78,29.24,31.54,32.10
1.02,-0.03,0.03,51.57,-3.66,-12.33,29.24,31.54,32.10
1.02,-0.03,0.03,51.57,-3.66,-12.33,29.06,31.14,32.87
1.01,0.02,0.06,50.11,-7.57,-8.97,29.06,31.14,32.87
0.98,0.03,0.09,47.49,-11.78,-2.32,29.06,31.14,32.87
0.98,0.03,0.09,47.49,-11.78,-2.32,29.06,31.14,32.87
0.97,0.02,0.09,45.17,-14.89,5.74,29.06,31.14,32.87
0.97,0.02,0.09,40.77,-17.40,9.64,29.06,31.14,32.87
0.98,0.00,0.09,40.77,-17.40,9.64,29.06,31.14,32.87
0.99,-0.04,0.06,35.40,-18.07,9.89,29.06,31.14,32.87
0.99,-0.04,0.06,35.40,-18.07,9.89,29.06,31.14,32.87
0.99,-0.07,0.02,30.09,-16.60,8.73,29.06,31.14,32.87
0.99,-0.07,0.02,26.79,-15.20,6.10,29.92,30.05,33.74
0.99,-0.08,-0.01,26.79,-15.20,6.10,29.92,30.05,33.74
0.99,-0.06,-0.02,24.78,-12.63,2.44,29.92,30.05,33.74
0.99,-0.06,-0.02,24.72,-12.15,1.04,29.92,30.05,33.74
0.97,-0.05,0.02,24.72,-12.15,1.04,29.92,30.05,33.74
0.95,-0.03,0.04,23.93,-12.45,1.59,29.92,30.05,33.74
0.95,-0.03,0.04,23.93,-12.45,1.59,29.92,30.05,33.74
0.92,-0.01,0.06,22.22,-13.18,3.17,29.92,30.05,33.74
0.92,-0.01,0.06,21.36,-11.78,4.88,29.92,30.05,33.74
0.90,-0.01,0.06,21.36,-11.78,4.88,29.92,30.05,33.74
0.92,-0.02,0.05,21.12,-7.02,5.80,29.28,29.71,33.25
0.92,-0.02,0.05,23.50,-2.81,6.41,29.28,29.71,33.25
0.94,-0.06,0.04,23.50,-2.81,6.41,29.28,29.71,33.25
0.97,-0.07,0.02,24.84,-0.06,5.68,29.28,29.71,33.25
0.97,-0.07,0.02,24.84,-0.06,5.68,29.28,29.71,33.25
1.01,-0.09,0.01,27.10,3.36,3.72,29.28,29.71,33.25
1.01,-0.09,0.01,28.99,7.02,2.44,29.28,29.71,33.25
1.02,-0.11,-0.00,28.99,7.02,2.44,29.28,29.71,33.25
1.01,-0.09,0.00,25.94,8.42,0.37,29.28,29.71,33.25
1.01,-0.09,0.00,25.94,8.42,0.37,29.28,29.71,33.25
0.99,-0.04,0.02,25.57,11.29,0.92,29.70,29.37,34.02
0.98,-0.04,0.01,27.10,13.73,3.30,29.70,29.37,34.02
0.98,-0.04,0.01,27.10,13.73,3.30,29.70,29.37,34.02
0.94,-0.04,0.02,24.29,12.45,4.88,29.70,29.37,34.02
0.94,-0.04,0.02,24.29,12.45,4.88,29.70,29.37,34.02
0.94,-0.01,0.03,25.94,18.13,8.73,29.70,29.37,34.02
0.98,0.01,0.05,33.94,25.15,14.34,29.70,29.37,34.02
0.98,0.01,0.05,33.94,25.15,14.34,29.70,29.37,34.02
0.98,0.02,0.06,46.51,27.28,23.01,29.70,29.37,34.02
0.98,0.02,0.06,61.65,26.37,32.17,29.63,26.83,33.89
0.95,0.03,0.04,61.65,26.37,32.17,29.63,26.83,33.89
0.98,0.01,0.01,79.77,33.33,42.11,29.63,26.83,33.89
0.98,0.01,0.01,79.77,33.33,42.11,29.63,26.83,33.89
0.98,-0.00,-0.00,97.72,42.36,50.48,29.63,26.83,33.89
0.98,-0.03,-0.06,125.18,60.85,60.61,29.63,26.83,33.89
0.98,-0.03,-0.06,125.18,60.85,60.61,29.63,26.83,33.89
1.07,-0.07,-0.17,149.72,77.51,69.64,29.63,26.83,33.89
1.07,-0.07,-0.17,135.74,51.88,63.54,29.63,26.83,33.89
1.05,-0.14,-0.10,135.74,51.88,63.54,29.63,26.83,33.89
1.00,-0.08,-0.07,112.24,21.30,53.47,30.31,23.52,37.33
1.00,-0.08,-0.07,112.24,21.30,53.47,30.31,23.52,37.33
0.96,-0.05,-0.08,89.97,-2.69,44.74,30.31,23.52,37.33
0.98,-0.01,-0.04,78.31,-17.52,37.35,30.31,23.52,37.33
0.98,-0.01,-0.04,78.31,-17.52,37.35,30.31,23.52,37.33
1.00,0.06,-0.04,68.91,-27.89,32.29,30.31,23.52,37.33
1.00,0.06,-0.04,61.95,-35.83,25.57,30.31,23.52,37.33
0.93,0.13,0.03,61.95,-35.83,25.57,30.31,23.52,37.33
0.89,0.13,0.07,68.30,-31.43,20.26,30.31,23.52,37.33
0.89,0.13,0.07,68.30,-31.43,20.26,30.31,23.52,37.33
0.88,0.06,0.06,72.08,-26.55,16.97,32.01,22.33,37.17
0.88,0.05,0.07,63.96,-29.17,15.08,32.01,22.33,37.17
0.88,0.05,0.07,63.96,-29.17,15.08,32.01,22.33,37.17
0.90,0.05,0.05,52.25,-34.30,13.49,32.01,22.33,37.17
0.90,0.05,0.05,46.81,-36.13,12.21,32.01,22.33,37.17
0.93,0.02,0.02,46.81,-36.13,12.21,32.01,22.33,37.17
0.97,-0.04,0.02,46.94,-33.57,9.64,32.01,22.33,37.17
0.97,-0.04,0.02,46.94,-33.57,9.64,32.01,22.33,37.17
1.00,-0.08,-0.01,44.07,-28.08,6.59,32.01,22.33,37.17
1.00,-0.08,-0.01,37.72,-18.43,3.54,32.01,22.33,37.17
1.00,-0.07,-0.06,37.72,-18.43,3.54,32.17,21.40,36.96
0.99,-0.00,-0.02,36.19,-5.25,-0.37,32.17,21.40,36.96
0.99,-0.00,-0.02,41.56,5.74,-1.22,32.17,21.40,36.96
0.99,0.04,0.02,41.56,5.74,-1.22,32.17,21.40,36.96
1.00,0.05,0.04,47.85,6.04,1.16,32.17,21.40,36.96
1.00,0.05,0.04,47.85,6.04,1.16,32.17,21.40,36.96
0.97,0.07,0.01,50.72,1.22,3.05,32.17,21.40,36.96
0.97,0.07,0.01,53.16,-4.21,3.42,32.17,21.40,36.96
0.93,0.10,-0.02,53.16,-4.21,3.42,32.17,21.40,36.96
0.92,0.12,0.02,60.67,-6.90,0.24,32.17,21.40,36.96
0.92,0.12,0.02,60.67,-6.90,0.24,31.97,20.46,37.55
0.95,0.10,0.09,67.99,-10.13,-5.00,31.97,20.46,37.55
0.94,0.06,0.15,66.77,-15.87,-7.63,31.97,20.46,37.55
0.94,0.06,0.15,66.77,-15.87,-7.63,31.97,20.46,37.55
0.95,0.06,0.11,58.72,-20.69,-6.96,31.97,20.46,37.55
0.95,0.06,0.11,58.72,-20.69,-6.96,31.97,20.46,37.55
0.95,0.01,0.09,52.98,-23.80,-6.23,31.97,20.46,37.55
0.95,-0.02,0.10,43.70,-23.99,-8.91,31.97,20.46,37.55
0.95,-0.02,0.10,43.70,-23.99,-8.91,31.97,20.46,37.55
0.98,-0.07,0.08,28.75,-22.34,-14.40,31.97,20.46,37.55
0.98,-0.07,0.08,15.69,-19.10,-18.31,32.19,19.54,38.02
1.01,-0.12,0.07,15.69,-19.10,-18.31,32.19,19.54,38.02
1.01,-0.03,0.07,12.76,-10.68,-14.04,32.19,19.54,38.02
1.01,-0.03,0.07,12.76,-10.68,-14.04,32.19,19.54,38.02
1.01,-0.01,0.04,12.70,-4.88,-9.58,32.19,19.54,38.02
1.02,0.01,0.07,17.76,-1.59,-5.19,32.19,19.54,38.02
1.02,0.01,0.07,17.76,-1.59,-5.19,32.19,19.54,38.02
1.00,-0.00,0.15,25.02,3.66,0.67,32.19,19.54,38.02
1.00,-0.00,0.15,23.68,6.96,4.88,32.19,19.54,38.02
0.99,0.02,0.16,23.68,6.96,4.88,32.19,19.54,38.02
0.99,0.09,0.16,19.90,8.30,9.52,31.88,19.07,38.85
0.99,0.09,0.16,19.90,8.30,9.52,31.88,19.07,38.85
0.97,0.19,0.09,21.61,6.59,10.86,31.88,19.07,38.85
0.93,0.17,0.06,32.10,-1.28,4.27,31.88,19.07,38.85
0.93,0.17,0.06,32.10,-1.28,4.27,31.88,19.07,38.85
0.89,0.12,0.03,45.35,-9.40,-2.87,31.88,19.07,38.85
0.89,0.12,0.03,45.35,-9.40,-2.87,31.88,19.07,38.85
0.89,0.05,-0.01,49.62,-15.32,-11.60,31.88,19.07,38.85
0.93,0.00,0.00,47.61,-18.25,-20.94,31.88,19.07,38.85
0.93,0.00,0.00,47.61,-18.25,-20.94,32.53,18.55,39.03
0.98,-0.10,0.01,38.51,-18.74,-26.61,32.53,18.55,39.03
1.01,-0.16,0.02,39.55,-14.95,-19.78,32.53,18.55,39.03
1.01,-0.16,0.02,39.55,-14.95,-19.78,32.53,18.55,39.03
1.00,-0.10,0.10,43.64,-12.45,-2.81,32.53,18.55,39.03
1.00,-0.10,0.10,43.64,-12.45,-2.81,32.53,18.55,39.03
0.96,0.00,0.18,43.33,-9.52,9.09,32.53,18.55,39.03
0.95,0.03,0.22,42.36,-4.88,11.17,32.53,18.55,39.03
0.95,0.03,0.22,42.36,-4.88,11.17,32.53,18.55,39.03
0.96,0.03,0.21,40.10,0.24,9.09,32.53,18.55,39.03
0.96,0.03,0.21,40.10,0.24,9.09,32.42,17.42,38.72
0.95,0.03,0.17,36.99,3.42,7.81,32.42,17.42,38.72
0.94,0.03,0.11,34.24,2.93,7.32,32.42,17.42,38.72
0.94,0.03,0.11,34.24,2.93,7.32,32.42,17.42,38.72
0.94,0.01,0.05,34.00,-1.28,6.41,32.42,17.42,38.72
0.93,-0.05,0.02,35.03,-6.41,5.31,32.42,17.42,38.72
0.93,-0.05,0.02,35.03,-6.41,5.31,32.42,17.42,38.72
0.94,-0.04,0.04,32.35,-8.61,5.68,32.42,17.42,38.72
0.94,-0.04,0.04,32.35,-8.61,5.68,32.42,17.42,38.72
0.95,-0.03,0.05,29.91,-8.18,6.23,32.42,17.42,38.72
0.96,-0.04,0.05,31.25,-6.41,6.35,33.24,16.17,40.30
0.96,-0.04,0.05,31.25,-6.41,6.35,33.24,16.17,40.30
0.98,-0.02,0.09,32.90,-6.53,6.71,33.24,16.17,40.30
0.99,-0.03,0.14,36.13,-6.53,8.00,33.24,16.17,40.30
0.99,-0.03,0.14,36.13,-6.53,8.00,33.24,16.17,40.30
1.00,-0.05,0.19,38.33,-5.13,9.40,33.24,16.17,40.30
1.00,-0.05,0.19,38.33,-5.13,9.40,33.24,16.17,40.30
1.00,-0.04,0.28,33.81,-2.99,11.41,33.24,16.17,40.30
0.97,-0.09,0.42,16.48,2.99,12.08,33.24,16.17,40.30
0.97,-0.09,0.42,16.48,2.99,12.08,33.24,16.17,40.30
0.96,0.04,0.13,-14.59,16.48,12.08,32.97,16.05,39.99
0.93,0.08,0.02,-20.75,18.98,11.96,32.97,16.05,39.99
0.93,0.08,0.02,-20.75,18.98,11.96,32.97,16.05,39.99
0.89,0.09,0.07,-11.23,12.45,10.62,32.97,16.05,39.99
0.89,0.09,0.07,-11.23,12.45,10.62,32.97,16.05,39.99
0.90,0.12,0.11,-5.31,9.28,7.26,32.97,16.05,39.99
0.94,0.11,0.10,0.67,10.38,3.36,32.97,16.05,39.99
0.94,0.11,0.10,0.67,10.38,3.36,32.97,16.05,39.99
0.97,0.08,0.11,7.20,9.52,-0.06,32.97,16.05,39.99
0.97,0.08,0.11,7.20,9.52,-0.06,32.97,16.05,39.99
0.99,0.06,0.11,12.57,7.51,-2.99,32.51,15.54,40.25
0.98,0.04,0.16,18.37,4.88,-4.03,32.51,15.54,40.25
0.98,0.04,0.16,18.37,4.88,-4.03,32.51,15.54,40.25
0.99,0.06,0.10,21.30,4.76,-4.70,32.51,15.54,40.25
0.99,0.06,0.10,26.73,5.00,-5.68,32.51,15.54,40.25
0.99,0.05,0.10,26.73,5.00,-5.68,32.51,15.54,40.25
0.96,0.03,0.11,34.00,3.11,-4.94,32.51,15.54,40.25
0.96,0.03,0.11,34.00,3.11,-4.94,32.51,15.54,40.25
0.96,0.03,0.11,35.58,3.23,-4.15,32.51,15.54,40.25
0.96,0.03,0.11,36.44,3.48,-3.42,32.51,15.54,40.25
0.96,0.02,0.11,36.44,3.48,-3.42,32.37,15.01,41.27
0.96,-0.00,0.12,35.83,4.27,-2.32,32.37,15.01,41.27
0.96,-0.00,0.12,32.84,6.16,-1.22,32.37,15.01,41.27
0.96,-0.00,0.13,32.84,6.16,-1.22,32.37,15.01,41.27
0.96,0.02,0.12,28.56,8.18,-0.67,32.37,15.01,41.27
0.96,0.02,0.12,28.56,8.18,-0.67,32.37,15.01,41.27
0.96,0.01,0.12,24.84,9.16,-2.38,32.37,15.01,41.27
0.96,0.01,0.12,23.74,9.95,-3.54,32.37,15.01,41.27
0.98,0.00,0.11,23.74,9.95,-3.54,32.37,15.01,41.27
0.98,-0.01,0.13,23.13,9.09,-3.36,32.37,15.01,41.27
0.98,-0.01,0.13,23.13,9.09,-3.36,32.50,14.73,41.17
0.97,-0.03,0.08,18.74,8.85,-3.97,32.50,14.73,41.17
0.98,-0.01,-0.07,18.55,5.49,-3.60,32.50,14.73,41.17
0.98,-0.01,-0.07,18.55,5.49,-3.60,32.50,14.73,41.17
0.97,-0.07,0.07,28.99,-3.48,-1.28,32.50,14.73,41.17
0.97,-0.07,0.07,29.30,-2.62,0.67,32.50,14.73,41.17
0.98,-0.02,0.06,29.30,-2.62,0.67,32.50,14.73,41.17
0.97,-0.01,0.09,30.82,-3.30,0.55,32.50,14.73,41.17
0.97,-0.01,0.09,30.82,-3.30,0.55,32.50,14.73,41.17
0.97,-0.01,0.14,34.42,-3.66,1.46,32.81,13.87,42.15
0.96,-0.02,0.14,32.90,-5.31,3.17,32.81,13.87,42.15
0.96,-0.02,0.14,32.90,-5.31,3.17,32.81,13.87,42.15
0.97,-0.02,0.12,29.05,-5.92,4.94,32.81,13.87,42.15
0.97,-0.02,0.12,29.05,-5.92,4.94,32.81,13.87,42.15
0.97,-0.05,0.13,25.94,-4.76,6.71,32.81,13.87,42.15
0.96,-0.05,0.12,21.00,-2.87,8.06,32.81,13.87,42.15
0.96,-0.05,0.12,21.00,-2.87,8.06,32.81,13.87,42.15
0.95,-0.03,0.11,15.14,-2.01,8.61,32.81,13.87,42.15
0.95,-0.03,0.11,15.14,-2.01,8.61,32.81,13.87,42.15
0.94,-0.01,0.11,11.29,-2.20,8.12,32.92,13.64,40.55
0.95,-0.00,0.10,9.58,-1.40,6.90,32.92,13.64,40.55
0.95,-0.00,0.10,9.58,-1.40,6.90,32.92,13.64,40.55
0.95,0.01,0.09,11.17,-0.18,5.37,32.92,13.64,40.55
0.95,0.01,0.09,14.59,1.28,4.09,32.92,13.64,40.55
0.95,0.01,0.09,14.59,1.28,4.09,32.92,13.64,40.55
0.94,0.02,0.11,18.98,2.93,3.17,32.92,13.64,40.55
0.94,0.02,0.11,18.98,2.93,3.17,32.92,13.64,40.55
0.96,0.01,0.10,23.56,5.00,2.32,32.92,13.64,40.55
0.98,0.00,0.10,27.89,5.49,2.01,32.92,13.64,40.55
0.98,0.00,0.10,27.89,5.49,2.01,34.17,12.79,40.52
0.98,0.01,0.09,28.69,3.78,1.95,34.17,12.79,40.52
0.97,0.01,0.09,30.40,1.83,1.16,34.17,12.79,40.52
0.97,0.01,0.09,30.40,1.83,1.16,34.17,12.79,40.52
0.96,-0.01,0.10,32.47,1.59,0.12,34.17,12.79,40.52
0.96,-0.01,0.10,32.47,1.59,0.12,34.17,12.79,40.52
0.95,-0.03,0.11,34.73,2.14,0.18,34.17,12.79,40.52
0.94,-0.03,0.11,32.78,2.75,0.43,34.17,12.79,40.52
0.94,-0.03,0.11,32.78,2.75,0.43,34.17,12.79,40.52
0.94,-0.03,0.12,25.88,6.53,1.65,34.17,12.79,40.52
0.94,-0.03,0.12,25.88,6.53,1.65,34.38,11.49,40.78
0.94,-0.01,0.12,20.75,9.64,3.60,34.38,11.49,40.78
0.94,0.00,0.11,19.96,10.68,3.78,34.38,11.49,40.78
0.94,0.00,0.11,19.96,10.68,3.78,34.38,11.49,40.78
0.96,0.00,0.10,23.32,13.06,3.42,34.38,11.49,40.78
0.97,0.00,0.10,26.37,16.97,3.42,34.38,11.49,40.78
0.97,0.00,0.10,26.37,16.97,3.42,34.38,11.49,40.78
0.97,0.01,0.10,28.50,19.29,3.54,34.38,11.49,40.78
0.97,0.01,0.10,28.50,19.29,3.54,34.38,11.49,40.78
0.97,0.01,0.09,34.73,16.91,2.20,34.38,11.49,40.78
0.97,0.00,0.08,37.41,13.55,0.61,34.00,10.49,40.99
0.97,0.00,0.08,37.41,13.55,0.61,34.00,10.49,40.99
0.96,0.01,0.08,37.96,10.13,-0.55,34.00,10.49,40.99
0.96,0.01,0.08,39.73,8.30,-0.85,34.00,10.49,40.99
0.95,0.00,0.09,39.73,8.30,-0.85,34.00,10.49,40.99
0.95,-0.00,0.09,42.42,8.18,-0.31,34.00,10.49,40.99
0.95,-0.00,0.09,42.42,8.18,-0.31,34.00,10.49,40.99
0.96,-0.02,0.09,43.82,8.42,0.61,34.00,10.49,40.99
0.96,-0.02,0.09,40.83,9.58,1.77,34.00,10.49,40.99
0.96,-0.04,0.09,40.83,9.58,1.77,34.00,10.49,40.99
0.96,-0.04,0.08,35.34,10.99,2.62,34.46,9.38,41.52
0.96,-0.04,0.08,33.33,11.54,3.05,34.46,9.38,41.52
0.96,-0.02,0.10,33.33,11.54,3.05,34.46,9.38,41.52
0.96,-0.00,0.10,32.29,12.02,3.23,34.46,9.38,41.52
0.96,-0.00,0.10,32.29,12.02,3.23,34.46,9.38,41.52
0.97,0.00,0.09,32.96,11.29,2.93,34.46,9.38,41.52
0.97,0.00,0.09,37.60,5.98,2.50,34.46,9.38,41.52
0.97,0.01,0.08,37.60,5.98,2.50,34.46,9.38,41.52
0.97,0.01,0.07,42.79,2.32,3.05,34.46,9.38,41.52
0.97,0.01,0.07,42.79,2.32,3.05,34.46,9.38,41.52
0.97,-0.00,0.07,49.62,-0.37,3.30,34.56,8.11,42.53
0.97,-0.02,0.08,53.47,-2.38,4.70,34.56,8.11,42.53
0.97,-0.02,0.08,53.47,-2.38,4.70,34.56,8.11,42.53
0.97,-0.03,0.08,52.37,-4.58,4.88,34.56,8.11,42.53
0.97,-0.03,0.08,52.37,-4.58,4.88,34.56,8.11,42.53
0.96,-0.04,0.07,48.28,-6.53,4.58,34.56,8.11,42.53
0.96,-0.03,0.08,42.30,-6.96,4.21,34.56,8.11,42.53
0.96,-0.03,0.08,42.30,-6.96,4.21,34.56,8.11,42.53
0.94,-0.03,0.07,37.35,-6.29,3.23,34.56,8.11,42.53
0.94,-0.03,0.07,37.35,-6.29,3.23,34.56,8.11,42.53
0.95,-0.03,0.08,35.46,-3.60,3.05,34.59,7.52,41.37
0.96,-0.04,0.09,32.96,-0.73,3.91,34.59,7.52,41.37
0.96,-0.04,0.09,32.96,-0.73,3.91,34.59,7.52,41.37
0.97,-0.05,0.09,29.72,0.18,4.94,34.59,7.52,41.37
0.97,-0.04,0.09,24.60,0.18,6.04,34.59,7.52,41.37
0.97,-0.04,0.09,24.60,0.18,6.04,34.59,7.52,41.37
0.96,-0.01,0.08,20.08,-0.12,6.90,34.59,7.52,41.37
0.96,-0.01,0.08,20.08,-0.12,6.90,34.59,7.52,41.37
0.97,0.00,0.08,19.04,-0.18,6.04,34.59,7.52,41.37
0.97,-0.00,0.08,21.48,-1.22,4.03,34.59,7.52,41.37
0.97,-0.00,0.08,21.48,-1.22,4.03,35.02,6.76,41.96
0.96,-0.00,0.09,23.93,-2.62,2.62,35.02,6.76,41.96
0.96,-0.00,0.09,26.12,-2.69,2.26,35.02,6.76,41.96
0.95,0.00,0.09,26.12,-2.69,2.26,35.02,6.76,41.96
0.94,-0.01,0.10,29.42,-0.92,2.99,35.02,6.76,41.96
0.94,-0.01,0.10,29.42,-0.92,2.99,35.02,6.76,41.96
0.94,-0.03,0.10,33.45,3.30,4.21,35.02,6.76,41.96
0.94,-0.03,0.10,34.30,6.47,5.80,35.02,6.76,41.96
0.96,-0.04,0.09,34.30,6.47,5.80,35.02,6.76,41.96
0.97,-0.04,0.09,30.82,7.02,7.02,35.02,6.76,41.96
0.97,-0.04,0.09,30.82,7.02,7.02,35.34,4.36,42.41
0.97,-0.03,0.08,26.18,6.47,6.53,35.34,4.36,42.41
0.96,-0.04,0.08,24.05,7.57,5.80,35.34,4.36,42.41
0.96,-0.04,0.08,24.05,7.57,5.80,35.34,4.36,42.41
0.92,-0.02,0.09,24.48,11.72,5.86,35.34,4.36,42.41
0.92,-0.02,0.09,24.48,11.72,5.86,35.34,4.36,42.41
0.91,-0.02,0.08,26.43,21.00,6.65,35.34,4.36,42.41
0.95,-0.03,0.08,28.56,31.25,8.12,35.34,4.36,42.41
0.95,-0.03,0.08,28.56,31.25,8.12,35.34,4.36,42.41
0.98,-0.04,0.09,26.79,35.71,9.46,35.34,4.36,42.41
0.98,-0.04,0.09,26.79,35.71,9.46,33.22,4.31,42.66
1.00,-0.03,0.08,21.24,32.59,9.28,33.22,4.31,42.66
1.00,-0.03,0.06,17.52,30.15,9.70,33.22,4.31,42.66
1.00,-0.03,0.06,17.52,30.15,9.70,33.22,4.31,42.66
1.00,-0.02,0.06,13.43,26.49,9.09,33.22,4.31,42.66
0.99,-0.01,0.05,9.34,21.73,7.57,33.22,4.31,42.66
0.99,-0.01,0.05,9.34,21.73,7.57,33.22,4.31,42.66
1.00,0.00,0.04,7.45,17.70,5.80,33.22,4.31,42.66
1.00,0.00,0.04,7.45,17.70,5.80,33.22,4.31,42.66
1.00,0.00,0.04,8.85,14.65,4.27,33.22,4.31,42.66
0.98,-0.01,0.05,11.47,12.15,3.11,32.45,4.91,42.55
0.98,-0.01,0.05,11.47,12.15,3.11,32.45,4.91,42.55
0.96,-0.01,0.05,11.66,10.01,2.32,32.45,4.91,42.55
0.96,0.01,0.04,12.88,9.64,3.66,32.45,4.91,42.55
0.96,0.01,0.04,12.88,9.64,3.66,32.45,4.91,42.55
0.96,0.00,0.04,17.58,13.55,6.47,32.45,4.91,42.55
0.96,0.00,0.04,17.58,13.55,6.47,32.45,4.91,42.55
0.97,0.00,0.03,19.35,16.11,7.75,32.45,4.91,42.55
0.96,0.01,0.02,17.21,14.89,6.59,32.45,4.91,42.55
0.96,0.01,0.02,17.21,14.89,6.59,32.28,4.69,43.86
0.97,-0.00,0.01,13.24,11.96,3.36,32.28,4.69,43.86
0.97,-0.00,0.01,8.24,8.91,0.43,32.28,4.69,43.86
0.96,-0.01,0.02,8.24,8.91,0.43,32.28,4.69,43.86
0.98,-0.00,0.02,2.20,5.43,-0.85,32.28,4.69,43.86
0.98,-0.00,0.02,2.20,5.43,-0.85,32.28,4.69,43.86
0.96,0.00,0.01,-2.26,2.44,-2.50,32.28,4.69,43.86
0.96,0.00,0.01,-3.72,1.28,-2.20,32.28,4.69,43.86
0.98,-0.01,0.03,-3.72,1.28,-2.20,32.28,4.69,43.86
0.98,-0.01,0.04,-5.55,0.92,-1.89,32.28,4.69,43.86
0.98,-0.01,0.04,-5.55,0.92,-1.89,32.28,4.69,43.86
0.99,-0.02,0.05,-5.37,0.67,-1.22,31.95,4.88,42.94
0.99,-0.03,0.05,-4.39,1.53,0.37,31.95,4.88,42.94
0.99,-0.03,0.05,-4.39,1.53,0.37,31.95,4.88,42.94
0.99,-0.03,0.04,-5.25,2.01,2.56,31.95,4.88,42.94
0.99,-0.03,0.04,-5.25,2.01,2.56,31.95,4.88,42.94
0.99,-0.03,0.05,-6.96,1.28,3.60,31.95,4.88,42.94
0.98,-0.02,0.05,-11.17,0.98,4.21,31.95,4.88,42.94
0.98,-0.02,0.05,-11.17,0.98,4.21,31.95,4.88,42.94
0.96,0.01,0.05,-13.55,-0.37,3.36,31.95,4.88,42.94
0.96,0.01,0.05,-13.55,-0.37,3.36,31.95,4.88,42.94
0.95,0.03,0.04,-13.55,-0.67,1.40,31.35,5.13,42.30
0.95,0.02,0.03,-9.89,-0.73,-0.79,31.35,5.13,42.30
0.95,0.02,0.03,-9.89,-0.73,-0.79,31.35,5.13,42.30
0.97,0.02,0.03,-9.46,0.06,-2.01,31.35,5.13,42.30
0.97,0.02,0.03,-11.29,-0.79,-3.05,31.35,5.13,42.30
1.00,0.03,0.02,-11.29,-0.79,-3.05,31.35,5.13,42.30
1.02,0.02,0.03,-5.37,-3.17,-3.91,31.35,5.13,42.30
1.02,0.02,0.03,-5.37,-3.17,-3.91,31.35,5.13,42.30
1.02,-0.00,0.04,1.83,-4.52,-3.42,31.35,5.13,42.30
1.02,-0.00,0.04,4.09,-6.77,-1.89,30.82,6.07,42.43
1.01,-0.02,0.06,4.09,-6.77,-1.89,30.82,6.07,42.43
1.00,-0.01,0.05,4.09,-7.87,0.92,30.82,6.07,42.43
1.00,-0.01,0.05,4.58,-7.75,3.66,30.82,6.07,42.43
0.98,-0.01,0.06,4.58,-7.75,3.66,30.82,6.07,42.43
0.98,0.00,0.05,5.74,-8.00,5.62,30.82,6.07,42.43
0.98,0.00,0.05,5.74,-8.00,5.62,30.82,6.07,42.43
0.91,-0.02,0.00,7.87,-6.77,7.69,30.82,6.07,42.43
0.91,-0.02,0.00,7.87,-6.77,7.69,30.82,6.07,42.43
0.94,0.02,0.03,10.86,-7.32,8.67,30.82,6.07,42.43
0.95,0.03,0.08,16.11,-4.52,7.26,30.86,6.38,41.86
0.95,0.03,0.08,16.11,-4.52,7.26,30.86,6.38,41.86
0.96,0.01,0.06,18.07,3.23,4.58,30.86,6.38,41.86
0.95,-0.01,0.06,15.32,6.71,2.44,30.86,6.38,41.86
0.95,-0.01,0.06,15.32,6.71,2.44,30.86,6.38,41.86
0.95,-0.02,0.05,9.89,7.32,2.08,30.86,6.38,41.86
0.95,-0.02,0.05,9.89,7.32,2.08,30.86,6.38,41.86
0.97,-0.02,0.05,7.57,7.81,2.69,30.86,6.38,41.86
0.98,0.00,0.06,4.88,8.48,3.85,30.86,6.38,41.86
0.98,0.00,0.06,4.88,8.48,3.85,30.86,6.38,41.86
0.99,0.03,0.01,7.02,10.99,4.76,29.85,7.35,42.74
0.99,0.03,0.01,11.78,11.35,4.21,29.85,7.35,42.74
0.97,0.00,0.03,11.78,11.35,4.21,29.85,7.35,42.74
0.95,-0.00,0.03,10.50,5.98,2.81,29.85,7.35,42.74
0.95,-0.00,0.03,10.50,5.98,2.81,29.85,7.35,42.74
0.96,0.02,0.02,9.95,3.60,1.83,29.85,7.35,42.74
0.96,0.02,0.02,10.93,3.23,0.92,29.85,7.35,42.74
0.96,0.00,0.04,10.93,3.23,0.92,29.85,7.35,42.74
0.94,0.01,0.05,10.80,2.81,0.49,29.85,7.35,42.74
0.94,0.01,0.05,10.80,2.81,0.49,29.85,7.35,42.74
0.95,0.02,0.04,11.60,2.44,0.43,29.42,6.40,42.93
0.94,0.03,0.04,14.28,3.23,1.28,29.42,6.40,42.93
0.94,0.03,0.04,14.28,3.23,1.28,29.42,6.40,42.93
0.95,0.03,0.06,17.76,4.94,2.20,29.42,6.40,42.93
0.95,0.03,0.06,17.76,4.94,2.20,29.42,6.40,42.93
0.96,0.03,0.06,21.36,8.06,3.54,29.42,6.40,42.93
0.97,0.03,0.05,22.95,9.83,4.33,29.42,6.40,42.93
0.97,0.03,0.05,22.95,9.83,4.33,29.42,6.40,42.93
0.96,0.03,0.06,24.11,10.99,4.64,29.42,6.40,42.93
0.96,0.03,0.06,24.11,10.99,4.64,29.42,6.40,42.93
0.98,0.03,0.06,27.10,14.47,5.07,29.66,5.85,42.20
0.99,0.02,0.07,31.56,17.15,5.31,29.66,5.85,42.20
0.99,0.02,0.07,31.56,17.15,5.31,29.66,5.85,42.20
0.99,0.05,0.06,36.50,16.66,4.82,29.66,5.85,42.20
0.98,0.05,0.06,43.58,14.04,4.39,29.66,5.85,42.20
0.98,0.05,0.06,43.58,14.04,4.39,29.66,5.85,42.20
0.96,0.03,0.05,51.21,12.15,4.64,29.66,5.85,42.20
0.96,0.03,0.05,51.21,12.15,4.64,29.66,5.85,42.20
0.95,0.02,0.05,54.87,10.50,5.55,29.66,5.85,42.20
0.95,0.02,0.04,56.88,9.09,6.16,29.66,5.85,42.20
0.95,0.02,0.04,56.88,9.09,6.16,28.78,5.53,42.88
0.95,0.01,0.03,57.86,7.39,6.16,28.78,5.53,42.88
0.95,0.01,0.03,59.39,6.53,5.74,28.78,5.53,42.88
0.96,-0.00,0.01,59.39,6.53,5.74,28.78,5.53,42.88
0.96,-0.02,0.01,61.10,5.86,4.94,28.78,5.53,42.88
0.96,-0.02,0.01,61.10,5.86,4.94,28.78,5.53,42.88
0.95,-0.03,0.05,60.73,4.46,4.15,28.78,5.53,42.88
0.95,-0.03,0.05,58.59,4.33,4.58,28.78,5.53,42.88
0.96,-0.04,0.08,58.59,4.33,4.58,28.78,5.53,42.88
0.97,-0.03,0.09,59.69,5.25,5.86,28.78,5.53,42.88
0.97,-0.03,0.09,59.69,5.25,5.86,28.93,4.57,42.18
0.95,-0.05,0.05,64.03,7.87,7.51,28.93,4.57,42.18
0.95,0.00,0.07,63.29,11.17,10.19,28.93,4.57,42.18
0.95,0.00,0.07,63.29,11.17,10.19,28.93,4.57,42.18
0.94,0.03,0.05,66.59,13.61,14.34,28.93,4.57,42.18
0.94,0.03,0.05,76.84,15.81,16.54,28.93,4.57,42.18
0.94,-0.01,0.01,76.84,15.81,16.54,28.93,4.57,42.18
0.93,-0.04,-0.06,92.04,24.17,12.15,28.93,4.57,42.18
0.93,-0.04,-0.06,92.04,24.17,12.15,28.93,4.57,42.18
0.93,-0.07,-0.03,96.19,34.00,8.30,28.93,4.57,42.18
0.93,-0.07,-0.03,94.67,38.39,8.85,27.32,2.67,42.11
0.99,-0.07,-0.04,94.67,38.39,8.85,27.32,2.67,42.11
0.99,-0.08,-0.08,90.88,40.22,8.36,27.32,2.67,42.11
0.99,-0.08,-0.08,90.88,40.22,8.36,27.32,2.67,42.11
1.01,-0.06,-0.06,81.54,39.73,5.92,27.32,2.67,42.11
0.99,-0.02,0.03,73.61,36.32,1.04,27.32,2.67,42.11
0.99,-0.02,0.03,73.61,36.32,1.04,27.32,2.67,42.11
0.96,-0.02,0.10,75.07,29.66,-1.95,27.32,2.67,42.11
0.96,-0.02,0.10,75.07,29.66,-1.95,27.32,2.67,42.11
0.95,-0.05,0.08,87.52,24.29,-2.01,27.32,2.67,42.11
0.93,-0.06,0.07,101.20,24.05,-2.01,26.39,-0.24,41.71
0.93,-0.06,0.07,101.20,24.05,-2.01,26.39,-0.24,41.71
0.96,-0.06,0.07,114.20,26.43,0.43,26.39,-0.24,41.71
0.98,-0.07,0.04,127.50,24.35,2.81,26.39,-0.24,41.71
0.98,-0.07,0.04,127.50,24.35,2.81,26.39,-0.24,41.71
0.98,-0.08,-0.05,133.42,19.47,3.85,26.39,-0.24,41.71
0.98,-0.08,-0.05,133.42,19.47,3.85,26.39,-0.24,41.71
0.98,-0.07,-0.12,127.99,15.56,4.76,26.39,-0.24,41.71
0.98,-0.02,-0.12,116.76,16.60,5.31,26.39,-0.24,41.71
0.98,-0.02,-0.12,116.76,16.60,5.31,26.39,-0.24,41.71
0.98,-0.00,-0.10,108.34,20.87,6.71,26.46,-4.05,39.23
0.99,0.00,-0.07,104.00,24.78,8.73,26.46,-4.05,39.23
0.99,0.00,-0.07,104.00,24.78,8.73,26.46,-4.05,39.23
0.99,0.00,-0.04,103.82,26.61,8.24,26.46,-4.05,39.23
0.99,0.00,-0.04,103.82,26.61,8.24,26.46,-4.05,39.23
0.99,0.00,-0.02,106.81,27.71,7.51,26.46,-4.05,39.23
0.97,0.03,-0.11,110.84,27.95,7.93,26.46,-4.05,39.23
0.97,0.03,-0.11,110.84,27.95,7.93,26.46,-4.05,39.23
0.95,0.05,-0.13,105.90,28.14,12.27,26.46,-4.05,39.23
0.95,0.05,-0.13,105.90,28.14,12.27,26.46,-4.05,39.23
0.91,0.14,-0.06,92.65,28.38,19.41,25.79,-8.06,37.11
0.87,0.23,-0.11,87.71,26.61,29.60,25.79,-8.06,37.11
0.87,0.23,-0.11,87.71,26.61,29.60,25.79,-8.06,37.11
0.84,0.28,-0.14,91.98,31.74,43.40,25.79,-8.06,37.11
0.89,0.24,-0.11,93.38,37.66,60.36,25.79,-8.06,37.11
0.89,0.24,-0.11,93.38,37.66,60.36,25.79,-8.06,37.11
0.99,0.12,-0.09,90.39,34.79,70.74,25.79,-8.06,37.11
0.99,0.12,-0.09,90.39,34.79,70.74,25.79,-8.06,37.11
1.00,0.11,-0.03,83.25,23.32,61.77,25.79,-8.06,37.11
0.97,0.08,-0.05,71.66,4.03,45.84,24.12,-10.58,34.85
0.97,0.08,-0.05,71.66,4.03,45.84,24.12,-10.58,34.85
1.05,0.07,-0.00,70.25,-4.64,32.90,24.12,-10.58,34.85
1.05,0.07,-0.00,76.66,-8.48,21.97,24.12,-10.58,34.85
1.11,0.03,0.05,76.66,-8.48,21.97,24.12,-10.58,34.85
1.14,0.04,0.12,87.77,-15.87,10.13,24.12,-10.58,34.85
1.14,0.04,0.12,87.77,-15.87,10.13,24.12,-10.58,34.85
1.06,-0.01,-0.02,105.47,-24.66,-3.54,24.12,-10.58,34.85
0.99,0.04,-0.10,108.76,-29.42,-12.08,24.12,-10.58,34.85
0.99,0.04,-0.10,108.76,-29.42,-12.08,24.12,-10.58,34.85
0.96,0.10,-0.14,98.82,-27.83,-14.53,24.83,-12.88,33.74
0.96,0.10,-0.14,86.55,-20.08,-13.00,24.83,-12.88,33.74
0.93,0.10,-0.12,86.55,-20.08,-13.00,24.83,-12.88,33.74
0.98,0.10,-0.04,76.84,-12.70,-10.80,24.83,-12.88,33.74
0.98,0.10,-0.04,76.84,-12.70,-10.80,24.83,-12.88,33.74
1.03,0.06,-0.02,71.72,-11.66,-11.29,24.83,-12.88,33.74
1.04,0.07,-0.06,75.38,-12.08,-19.65,24.83,-12.88,33.74
1.04,0.07,-0.06,75.38,-12.08,-19.65,24.83,-12.88,33.74
1.05,0.07,-0.06,75.07,-12.08,-26.06,24.83,-12.88,33.74
1.05,0.07,-0.06,75.07,-12.08,-26.06,24.83,-12.88,33.74
1.01,0.05,-0.05,65.80,-15.93,-25.15,26.03,-13.00,30.98
0.98,0.07,-0.02,55.18,-19.29,-24.96,26.03,-13.00,30.98
0.98,0.07,-0.02,55.18,-19.29,-24.96,26.03,-13.00,30.98
0.97,0.07,-0.01,49.87,-21.42,-26.06,26.03,-13.00,30.98
0.95,0.11,-0.00,46.57,-22.64,-27.47,26.03,-13.00,30.98
0.95,0.11,-0.00,46.57,-22.64,-27.47,26.03,-13.00,30.98
0.95,0.08,-0.01,48.89,-22.03,-26.49,26.03,-13.00,30.98
0.95,0.08,-0.01,48.89,-22.03,-26.49,26.03,-13.00,30.98
0.96,0.04,-0.00,52.06,-18.98,-22.83,26.03,-13.00,30.98
0.96,0.02,-0.03,54.75,-14.83,-23.68,26.03,-13.00,30.98
0.96,0.02,-0.03,54.75,-14.83,-23.68,27.42,-13.23,29.10
0.90,-0.03,-0.13,54.87,-9.83,-28.75,27.42,-13.23,29.10
0.90,-0.03,-0.13,39.55,-0.92,-32.29,27.42,-13.23,29.10
0.91,-0.03,-0.21,39.55,-0.92,-32.29,27.42,-13.23,29.10
0.93,-0.06,-0.25,7.14,10.50,-29.72,27.42,-13.23,29.10
0.93,-0.06,-0.25,7.14,10.50,-29.72,27.42,-13.23,29.10
0.95,-0.01,-0.08,-31.49,20.63,-24.60,27.42,-13.23,29.10
0.99,0.10,0.15,-46.57,25.76,-20.87,27.42,-13.23,29.10
0.99,0.10,0.15,-46.57,25.76,-20.87,27.42,-13.23,29.10
1.00,0.10,0.24,-21.85,23.50,-21.79,27.42,-13.23,29.10
1.00,0.10,0.24,-21.85,23.50,-21.79,27.29,-13.16,29.09
0.94,0.16,0.08,27.16,15.62,-21.67,27.29,-13.16,29.09
0.91,0.16,-0.03,64.21,12.15,-10.44,27.29,-13.16,29.09
0.91,0.16,-0.03,64.21,12.15,-10.44,27.29,-13.16,29.09
0.92,0.20,-0.01,77.76,20.32,7.26,27.29,-13.16,29.09
0.95,0.10,-0.06,96.13,26.55,25.15,27.29,-13.16,29.09
0.95,0.10,-0.06,96.13,26.55,25.15,27.29,-13.16,29.09
1.00,0.01,-0.06,102.48,29.79,35.83,27.29,-13.16,29.09
1.00,0.01,-0.06,102.48,29.79,35.83,27.29,-13.16,29.09
1.04,-0.06,-0.02,98.33,27.89,36.19,27.29,-13.16,29.09
1.06,-0.09,0.01,92.41,21.79,28.26,26.88,-15.66,26.28
1.06,-0.09,0.01,92.41,21.79,28.26,26.88,-15.66,26.28
1.03,-0.09,0.03,87.04,14.10,12.94,26.88,-15.66,26.28
1.01,-0.12,0.04,81.54,6.71,-3.72,26.88,-15.66,26.28
1.01,-0.12,0.04,81.54,6.71,-3.72,26.88,-15.66,26.28
0.93,-0.10,0.05,79.53,0.85,-14.16,26.88,-15.66,26.28
0.93,-0.10,0.05,79.53,0.85,-14.16,26.88,-15.66,26.28
0.92,-0.04,0.02,84.66,-1.46,-16.78,26.88,-15.66,26.28
0.92,-0.04,0.00,89.72,-1.04,-12.76,26.88,-15.66,26.28
0.92,-0.04,0.00,89.72,-1.04,-12.76,26.88,-15.66,26.28
0.97,0.05,-0.00,92.41,1.10,-3.36,27.89,-16.97,24.88
0.97,0.05,-0.00,95.15,4.94,2.14,27.89,-16.97,24.88
0.98,0.05,-0.01,95.15,4.94,2.14,27.89,-16.97,24.88
1.00,0.05,0.01,97.11,8.48,4.21,27.89,-16.97,24.88
1.00,0.05,0.01,97.11,8.48,4.21,27.89,-16.97,24.88
1.00,0.05,0.01,100.04,14.77,6.53,27.89,-16.97,24.88
0.99,0.10,-0.04,101.56,21.18,6.59,27.89,-16.97,24.88
0.99,0.10,-0.04,101.56,21.18,6.59,27.89,-16.97,24.88
1.01,0.17,0.03,96.62,28.56,1.95,27.89,-16.97,24.88
1.01,0.17,0.03,96.62,28.56,1.95,28.11,-18.26,23.49
1.02,0.09,-0.01,85.88,40.10,-5.74,28.11,-18.26,23.49
1.00,-0.04,-0.09,72.08,43.27,-11.17,28.11,-18.26,23.49
1.00,-0.04,-0.09,72.08,43.27,-11.17,28.11,-18.26,23.49
1.02,-0.09,-0.15,63.29,38.45,-13.67,28.11,-18.26,23.49
1.02,-0.09,-0.15,60.24,20.26,-14.59,28.11,-18.26,23.49
1.00,-0.08,-0.04,60.24,20.26,-14.59,28.11,-18.26,23.49
1.00,-0.06,-0.11,61.95,7.08,-9.70,28.11,-18.26,23.49
1.00,-0.06,-0.11,61.95,7.08,-9.70,28.11,-18.26,23.49
1.03,0.03,-0.09,66.41,-5.62,-0.31,28.11,-18.26,23.49
1.03,0.03,-0.09,69.52,-22.34,7.45,28.61,-19.63,22.30
1.03,0.13,-0.09,69.52,-22.34,7.45,28.61,-19.63,22.30
0.99,0.18,-0.05,70.07,-32.71,5.55,28.61,-19.63,22.30
0.99,0.18,-0.05,70.13,-30.58,-2.75,28.61,-19.63,22.30
0.95,0.14,0.03,70.13,-30.58,-2.75,28.61,-19.63,22.30
0.88,0.13,0.23,72.63,-13.98,-10.80,28.61,-19.63,22.30
0.88,0.13,0.23,72.63,-13.98,-10.80,28.61,-19.63,22.30
0.87,0.02,-0.01,75.93,25.70,-18.74,28.61,-19.63,22.30
1.02,-0.12,-0.30,76.35,44.07,-18.37,28.61,-19.63,22.30
1.02,-0.12,-0.30,76.35,44.07,-18.37,28.61,-19.63,22.30
1.09,-0.19,-0.05,67.63,8.24,-9.28,28.67,-19.97,20.17
1.09,-0.19,-0.05,55.66,-3.36,-1.16,28.67,-19.97,20.17
1.09,-0.23,-0.09,55.66,-3.36,-1.16,28.67,-19.97,20.17
1.07,-0.17,-0.08,44.62,-5.68,4.27,28.67,-19.97,20.17
1.07,-0.17,-0.08,44.62,-5.68,4.27,28.67,-19.97,20.17
1.03,-0.05,-0.06,38.27,-10.86,6.77,28.67,-19.97,20.17
1.03,-0.05,-0.06,36.50,-11.29,7.39,28.67,-19.97,20.17
0.95,0.07,-0.06,36.50,-11.29,7.39,28.67,-19.97,20.17
0.83,0.18,-0.04,39.00,-7.20,6.23,28.67,-19.97,20.17
0.83,0.18,-0.04,39.00,-7.20,6.23,28.67,-19.97,20.17
0.87,0.15,-0.02,47.18,0.55,-0.85,30.22,-20.08,19.17
0.93,0.09,-0.06,54.14,6.47,-1.04,30.22,-20.08,19.17
0.93,0.09,-0.06,54.14,6.47,-1.04,30.22,-20.08,19.17
0.94,0.02,-0.05,58.29,2.50,2.44,30.22,-20.08,19.17
0.94,0.02,-0.05,60.85,-2.50,3.54,30.22,-20.08,19.17
0.94,-0.04,-0.02,60.85,-2.50,3.54,30.22,-20.08,19.17
0.95,-0.09,-0.04,62.32,-1.89,2.56,30.22,-20.08,19.17
0.95,-0.09,-0.04,62.32,-1.89,2.56,30.22,-20.08,19.17
0.59,-1.08,-0.17,61.58,-3.11,10.13,30.22,-20.08,19.17
0.59,-1.08,-0.17,70.86,-23.93,127.20,30.22,-20.08,19.17
0.76,-0.14,0.03,70.86,-23.93,127.20,28.48,-20.91,18.51
0.98,0.11,0.05,95.89,-38.15,164.49,28.48,-20.91,18.51
0.98,0.11,0.05,84.05,-40.47,138.00,28.48,-20.91,18.51
0.86,0.08,0.09,84.05,-40.47,138.00,28.48,-20.91,18.51
0.74,0.13,0.05,71.72,-32.53,122.31,28.48,-20.91,18.51
0.74,0.13,0.05,71.72,-32.53,122.31,28.48,-20.91,18.51
0.71,0.16,0.02,67.50,-21.18,115.05,28.48,-20.91,18.51
0.71,0.16,0.02,61.28,-6.10,112.79,28.48,-20.91,18.51
0.93,0.24,0.04,61.28,-6.10,112.79,28.48,-20.91,18.51
1.13,0.18,0.00,57.86,7.39,105.22,25.48,-22.47,16.16
1.13,0.18,0.00,54.99,8.18,92.90,25.48,-22.47,16.16
1.19,0.67,-0.14,54.99,8.18,92.90,25.48,-22.47,16.16
1.20,0.53,-0.13,42.42,0.00,36.13,25.48,-22.47,16.16
1.20,0.53,-0.13,42.42,0.00,36.13,25.48,-22.47,16.16
1.22,0.46,-0.12,22.03,-2.50,-28.08,25.48,-22.47,16.16
1.22,0.46,-0.12,8.54,7.14,-84.35,25.48,-22.47,16.16
1.28,0.34,-0.14,8.54,7.14,-84.35,25.48,-22.47,16.16
1.16,-0.03,-0.24,-0.06,27.16,-135.50,25.48,-22.47,16.16
1.16,-0.03,-0.24,-0.06,27.16,-135.50,25.48,-22.47,16.16
1.00,-0.13,-0.23,-7.57,21.48,-140.56,27.69,-21.73,16.21
0.90,-0.02,0.06,-1.53,-17.40,-92.22,27.69,-21.73,16.21
0.90,-0.02,0.06,-1.53,-17.40,-92.22,27.69,-21.73,16.21
0.72,0.02,0.24,18.62,-18.68,-41.75,27.69,-21.73,16.21
0.72,0.02,0.24,35.52,6.04,-1.34,27.69,-21.73,16.21
0.63,0.02,0.17,35.52,6.04,-1.34,27.69,-21.73,16.21
0.86,-0.00,0.14,46.45,25.21,18.37,27.69,-21.73,16.21
0.86,-0.00,0.14,46.45,25.21,18.37,27.69,-21.73,16.21
0.91,0.01,0.06,41.02,16.72,21.36,27.69,-21.73,16.21
0.91,0.01,0.06,33.51,9.09,21.12,27.69,-21.73,16.21
0.90,-0.01,0.07,33.51,9.09,21.12,28.16,-22.33,14.78
0.93,0.05,0.05,32.29,9.16,21.55,28.16,-22.33,14.78
0.93,0.05,0.05,32.29,9.16,21.55,28.16,-22.33,14.78
0.97,0.12,0.02,32.71,7.93,19.29,28.16,-22.33,14.78
0.99,0.13,-0.02,32.29,6.47,15.14,28.16,-22.33,14.78
0.99,0.13,-0.02,32.29,6.47,15.14,28.16,-22.33,14.78
1.02,0.10,-0.04,32.96,7.32,9.58,28.16,-22.33,14.78
1.02,0.10,-0.04,32.96,7.32,9.58,28.16,-22.33,14.78
1.02,0.09,-0.04,32.47,7.87,4.39,28.16,-22.33,14.78
0.99,0.11,-0.02,31.01,8.12,0.73,28.16,-22.33,14.78
0.99,0.11,-0.02,31.01,8.12,0.73,28.44,-22.38,14.82
0.97,0.11,-0.01,31.49,8.30,-0.31,28.44,-22.38,14.82
0.95,0.09,-0.01,33.87,7.63,2.44,28.44,-22.38,14.82
0.95,0.09,-0.01,33.87,7.63,2.44,28.44,-22.38,14.82
0.96,0.05,-0.03,40.10,5.92,7.93,28.44,-22.38,14.82
0.96,0.05,-0.03,40.10,5.92,7.93,28.44,-22.38,14.82
0.96,0.02,-0.02,47.06,3.54,14.22,28.44,-22.38,14.82
0.96,0.02,-0.02,51.94,2.32,17.52,28.44,-22.38,14.82
0.96,0.02,-0.02,51.94,2.32,17.52,28.44,-22.38,14.82
0.97,0.02,-0.01,54.44,2.38,16.24,28.44,-22.38,14.82
0.97,0.02,-0.01,54.44,2.38,16.24,28.11,-22.55,12.57
0.94,0.11,0.01,53.77,1.22,11.90,28.11,-22.55,12.57
0.86,0.15,0.03,49.13,2.50,6.65,28.11,-22.55,12.57
0.86,0.15,0.03,49.13,2.50,6.65,28.11,-22.55,12.57
0.88,0.12,0.04,44.74,8.36,4.94,28.11,-22.55,12.57
0.94,0.09,0.03,42.48,12.15,5.19,28.11,-22.55,12.57
0.94,0.09,0.03,42.48,12.15,5.19,28.11,-22.55,12.57
0.89,0.23,0.10,39.31,12.15,3.60,28.11,-22.55,12.57
0.89,0.23,0.10,39.31,12.15,3.60,28.11,-22.55,12.57
0.86,0.31,-0.05,41.63,20.75,-5.31,28.11,-22.55,12.57
0.91,0.25,-0.04,40.83,23.86,-11.54,27.20,-22.81,13.31
0.91,0.25,-0.04,40.83,23.86,-11.54,27.20,-22.81,13.31
0.87,0.23,-0.05,50.60,17.58,-4.94,27.20,-22.81,13.31
0.91,0.14,-0.11,71.41,18.80,10.38,27.20,-22.81,13.31
0.91,0.14,-0.11,71.41,18.80,10.38,27.20,-22.81,13.31
0.93,0.03,-0.11,90.33,18.49,32.17,27.20,-22.81,13.31
0.93,0.03,-0.11,90.33,18.49,32.17,27.20,-22.81,13.31
0.95,-0.03,-0.10,103.39,16.11,45.84,27.20,-22.81,13.31
1.02,-0.01,-0.07,106.99,13.79,49.19,27.20,-22.81,13.31
1.02,-0.01,-0.07,106.99,13.79,49.19,27.20,-22.81,13.31
1.05,0.02,-0.04,99.00,9.34,43.95,25.88,-22.69,9.35
1.04,0.06,-0.04,84.84,3.11,34.67,25.88,-22.69,9.35
1.04,0.06,-0.04,84.84,3.11,34.67,25.88,-22.69,9.35
1.05,0.11,-0.01,73.18,-1.04,25.63,25.88,-22.69,9.35
1.05,0.11,-0.01,73.18,-1.04,25.63,25.88,-22.69,9.35
0.99,0.16,0.03,67.63,-5.31,17.70,25.88,-22.69,9.35
0.97,0.19,0.02,68.12,-5.80,11.11,25.88,-22.69,9.35
0.97,0.19,0.02,68.12,-5.80,11.11,25.88,-22.69,9.35
0.97,0.21,0.00,73.49,-2.01,7.26,25.88,-22.69,9.35
0.97,0.21,0.00,73.49,-2.01,7.26,25.88,-22.69,9.35
0.99,0.19,0.00,80.57,1.89,7.93,25.83,-22.25,5.54
1.04,0.16,-0.02,86.12,4.76,9.16,25.83,-22.25,5.54
1.04,0.16,-0.02,86.12,4.76,9.16,25.83,-22.25,5.54
1.08,0.11,-0.04,87.46,4.88,9.46,25.83,-22.25,5.54
1.08,0.11,-0.04,82.76,2.81,7.45,25.83,-22.25,5.54
1.08,0.08,-0.03,82.76,2.81,7.45,25.83,-22.25,5.54
1.05,0.06,-0.00,73.36,-1.89,4.03,25.83,-22.25,5.54
